time,Acc_x,Acc_y,Acc_z,id,scenario,behavior,class
1509149376512.0,-0.009576806798577309,-0.2777273952960968,9.768342971801758,0,1,1,4
1509149376512.0,0.10534487664699554,-0.28730419278144836,9.710882186889648,0,1,1,4
1509149376512.0,0.1628057211637497,-0.26815059781074524,9.730035781860352,0,1,1,4
1509149376512.0,0.20111294090747833,-0.35434186458587646,9.720458984375,0,1,1,4
1509149376512.0,0.08619125932455063,-0.33518823981285095,9.797073364257812,0,1,1,4
1509149376512.0,0.05746084079146385,-0.31603461503982544,9.787496566772461,0,1,1,4
1509149376512.0,0.07661445438861847,-0.2968810200691223,9.730035781860352,0,1,1,4
1509149376512.0,0.1149216815829277,-0.2968810200691223,9.749189376831055,0,1,1,4
1509149376512.0,0.12449848651885986,-0.2968810200691223,9.739612579345703,0,1,1,4
1509149376512.0,0.08619125932455063,-0.31603461503982544,9.730035781860352,0,1,1,4
1509149376512.0,0.12449848651885986,-0.2968810200691223,9.710882186889648,0,1,1,4
1509149376512.0,0.15322890877723694,-0.2968810200691223,9.710882186889648,0,1,1,4
1509149376512.0,0.10534487664699554,-0.28730419278144836,9.816226959228516,0,1,1,4
1509149376512.0,0.05746084079146385,-0.3064578175544739,9.816226959228516,0,1,1,4
1509149376512.0,0.13407529890537262,-0.2968810200691223,9.816226959228516,0,1,1,4
1509149376512.0,0.22026655077934265,-0.31603461503982544,9.691728591918945,0,1,1,4
1509149376512.0,0.2585737705230713,-0.2777273952960968,9.672574996948242,0,1,1,4
1509149376512.0,0.1628057211637497,-0.23942017555236816,9.739612579345703,0,1,1,4
1509149376512.0,0.1628057211637497,-0.2777273952960968,9.77791976928711,0,1,1,4
1509149376512.0,0.20111294090747833,-0.2968810200691223,9.758766174316406,0,1,1,4
1509149376512.0,0.2106897532939911,-0.2777273952960968,9.701305389404297,0,1,1,4
1509149376512.0,0.1149216815829277,-0.22026655077934265,9.758766174316406,0,1,1,4
1509149376512.0,0.08619125932455063,-0.22026655077934265,9.825803756713867,0,1,1,4
1509149376512.0,0.17238251864910126,-0.2777273952960968,9.768342971801758,0,1,1,4
1509149376512.0,0.24899697303771973,-0.2585737705230713,9.720458984375,0,1,1,4
1509149376512.0,0.22026655077934265,-0.23942017555236816,9.720458984375,0,1,1,4
1509149376512.0,0.17238251864910126,-0.24899697303771973,9.720458984375,0,1,1,4
1509149376512.0,0.17238251864910126,-0.24899697303771973,9.739612579345703,0,1,1,4
1509149376512.0,0.19153612852096558,-0.20111294090747833,9.768342971801758,0,1,1,4
1509149376512.0,0.22026655077934265,-0.2298433631658554,9.835380554199219,0,1,1,4
1509149376512.0,0.23942017555236816,-0.2106897532939911,9.854534149169922,0,1,1,4
1509149376512.0,0.23942017555236816,-0.24899697303771973,9.77791976928711,0,1,1,4
1509149376512.0,0.24899697303771973,-0.24899697303771973,9.749189376831055,0,1,1,4
1509149376512.0,0.2298433631658554,-0.24899697303771973,9.797073364257812,0,1,1,4
1509149376512.0,0.28730419278144836,-0.2298433631658554,9.825803756713867,0,1,1,4
1509149376512.0,0.3064578175544739,-0.2106897532939911,9.768342971801758,0,1,1,4
1509149376512.0,0.23942017555236816,-0.22026655077934265,9.682151794433594,0,1,1,4
1509149376512.0,0.2585737705230713,-0.23942017555236816,9.672574996948242,0,1,1,4
1509149376512.0,0.2777273952960968,-0.22026655077934265,9.797073364257812,0,1,1,4
1509149376512.0,0.31603461503982544,-0.23942017555236816,9.883264541625977,0,1,1,4
1509149376512.0,0.24899697303771973,-0.2777273952960968,9.835380554199219,0,1,1,4
1509149376512.0,0.181959331035614,-0.20111294090747833,9.806650161743164,0,1,1,4
1509149376512.0,0.3064578175544739,-0.2298433631658554,9.701305389404297,0,1,1,4
1509149376512.0,0.4213795065879822,-0.22026655077934265,9.672574996948242,0,1,1,4
1509149376512.0,0.3734954595565796,-0.22026655077934265,9.701305389404297,0,1,1,4
1509149376512.0,0.363918662071228,-0.20111294090747833,9.77791976928711,0,1,1,4
1509149376512.0,0.28730419278144836,-0.2106897532939911,9.825803756713867,0,1,1,4
1509149376512.0,0.31603461503982544,-0.26815059781074524,9.883264541625977,0,1,1,4
1509149376512.0,0.363918662071228,-0.22026655077934265,9.883264541625977,0,1,1,4
1509149376512.0,0.2968810200691223,-0.1628057211637497,9.835380554199219,0,1,1,4
1509149376512.0,0.43095630407333374,-0.181959331035614,9.864110946655273,0,1,1,4
1509149376512.0,0.28730419278144836,-0.1628057211637497,9.864110946655273,0,1,1,4
1509149376512.0,0.2968810200691223,-0.17238251864910126,9.758766174316406,0,1,1,4
1509149376512.0,0.4118026793003082,-0.12449848651885986,9.730035781860352,0,1,1,4
1509149376512.0,0.6224924325942993,-0.14365209639072418,9.672574996948242,0,1,1,4
1509149376512.0,0.5363011956214905,-0.13407529890537262,9.710882186889648,0,1,1,4
1509149376512.0,0.38307225704193115,-0.1149216815829277,9.84495735168457,0,1,1,4
1509149376512.0,0.4118026793003082,-0.13407529890537262,9.883264541625977,0,1,1,4
1509149376512.0,0.5363011956214905,-0.1149216815829277,9.816226959228516,0,1,1,4
1509149376512.0,0.6033388376235962,-0.08619125932455063,9.787496566772461,0,1,1,4
1509149376512.0,0.49799394607543945,-0.08619125932455063,9.730035781860352,0,1,1,4
1509149376512.0,-0.019153613597154617,0.0,9.768342971801758,1,1,1,4
1509149376512.0,-0.1149216815829277,-0.019153613597154617,9.864110946655273,1,1,1,4
1509149376512.0,-0.08619125932455063,-0.009576806798577309,9.758766174316406,1,1,1,4
1509149376512.0,-0.12449848651885986,-0.009576806798577309,9.653421401977539,1,1,1,4
1509149376512.0,-0.19153612852096558,0.0,9.701305389404297,1,1,1,4
1509149376512.0,-0.3064578175544739,-0.019153613597154617,9.797073364257812,1,1,1,4
1509149376512.0,-0.13407529890537262,-0.019153613597154617,9.84495735168457,1,1,1,4
1509149376512.0,0.0,0.0,9.768342971801758,1,1,1,4
1509149376512.0,-0.1149216815829277,0.019153613597154617,9.768342971801758,1,1,1,4
1509149376512.0,-0.24899697303771973,-0.019153613597154617,9.911994934082031,1,1,1,4
1509149376512.0,-0.1149216815829277,-0.009576806798577309,9.873687744140625,1,1,1,4
1509149376512.0,-0.028730420395731926,0.009576806798577309,9.758766174316406,1,1,1,4
1509149376512.0,-0.14365209639072418,0.0,9.672574996948242,1,1,1,4
1509149376512.0,-0.31603461503982544,0.019153613597154617,9.720458984375,1,1,1,4
1509149376512.0,-0.1628057211637497,0.019153613597154617,9.787496566772461,1,1,1,4
1509149376512.0,-0.23942017555236816,0.009576806798577309,9.864110946655273,1,1,1,4
1509149376512.0,-0.17238251864910126,0.009576806798577309,9.787496566772461,1,1,1,4
1509149376512.0,-0.14365209639072418,0.028730420395731926,9.768342971801758,1,1,1,4
1509149376512.0,-0.22026655077934265,0.019153613597154617,9.816226959228516,1,1,1,4
1509149376512.0,-0.23942017555236816,0.009576806798577309,9.873687744140625,1,1,1,4
1509149376512.0,-0.20111294090747833,0.028730420395731926,9.749189376831055,1,1,1,4
1509149376512.0,-0.14365209639072418,0.05746084079146385,9.701305389404297,1,1,1,4
1509149376512.0,-0.2106897532939911,0.047884032130241394,9.720458984375,1,1,1,4
1509149376512.0,-0.17238251864910126,0.028730420395731926,9.825803756713867,1,1,1,4
1509149376512.0,-0.20111294090747833,0.019153613597154617,9.931148529052734,1,1,1,4
1509149376512.0,-0.2106897532939911,0.009576806798577309,9.911994934082031,1,1,1,4
1509149376512.0,-0.2298433631658554,0.028730420395731926,9.749189376831055,1,1,1,4
1509149376512.0,-0.20111294090747833,0.028730420395731926,9.768342971801758,1,1,1,4
1509149376512.0,-0.17238251864910126,0.019153613597154617,9.816226959228516,1,1,1,4
1509149376512.0,-0.2106897532939911,0.009576806798577309,9.787496566772461,1,1,1,4
1509149376512.0,-0.2585737705230713,0.009576806798577309,9.768342971801758,1,1,1,4
1509149376512.0,-0.09576806426048279,-0.019153613597154617,9.758766174316406,1,1,1,4
1509149376512.0,-0.09576806426048279,0.019153613597154617,9.787496566772461,1,1,1,4
1509149376512.0,-0.181959331035614,0.0,9.835380554199219,1,1,1,4
1509149376512.0,-0.15322890877723694,0.009576806798577309,9.806650161743164,1,1,1,4
1509149376512.0,-0.15322890877723694,0.028730420395731926,9.835380554199219,1,1,1,4
1509149376512.0,-0.2298433631658554,0.019153613597154617,9.797073364257812,1,1,1,4
1509149376512.0,-0.1149216815829277,0.028730420395731926,9.816226959228516,1,1,1,4
1509149376512.0,-0.1149216815829277,0.028730420395731926,9.825803756713867,1,1,1,4
1509149376512.0,-0.2298433631658554,0.009576806798577309,9.797073364257812,1,1,1,4
1509149376512.0,-0.2968810200691223,0.019153613597154617,9.787496566772461,1,1,1,4
1509149376512.0,-0.1628057211637497,0.019153613597154617,9.806650161743164,1,1,1,4
1509149376512.0,-0.17238251864910126,0.0,9.806650161743164,1,1,1,4
1509149376512.0,-0.3064578175544739,-0.009576806798577309,9.739612579345703,1,1,1,4
1509149376512.0,-0.20111294090747833,0.019153613597154617,9.768342971801758,1,1,1,4
1509149376512.0,-0.06703764945268631,0.038307227194309235,9.835380554199219,1,1,1,4
1509149376512.0,-0.1149216815829277,0.019153613597154617,9.816226959228516,1,1,1,4
1509149376512.0,-0.2106897532939911,0.0,9.787496566772461,1,1,1,4
1509149376512.0,-0.20111294090747833,0.019153613597154617,9.749189376831055,1,1,1,4
1509149376512.0,-0.2106897532939911,0.038307227194309235,9.864110946655273,1,1,1,4
1509149376512.0,-0.15322890877723694,0.038307227194309235,9.816226959228516,1,1,1,4
1509149376512.0,-0.13407529890537262,0.038307227194309235,9.749189376831055,1,1,1,4
1509149376512.0,-0.1628057211637497,0.0,9.797073364257812,1,1,1,4
1509149376512.0,-0.2585737705230713,0.0,9.816226959228516,1,1,1,4
1509149376512.0,-0.2106897532939911,0.0,9.854534149169922,1,1,1,4
1509149376512.0,-0.1149216815829277,0.0,9.825803756713867,1,1,1,4
1509149376512.0,-0.17238251864910126,0.019153613597154617,9.768342971801758,1,1,1,4
1509149376512.0,-0.2298433631658554,0.009576806798577309,9.739612579345703,1,1,1,4
1509149376512.0,-0.15322890877723694,0.009576806798577309,9.797073364257812,1,1,1,4
1509149376512.0,-0.17238251864910126,0.0,9.873687744140625,1,1,1,4
1509150294016.0,-1.647210717201233,5.583278179168701,7.603984832763672,2,1,1,4
1509150294016.0,-1.158793568611145,5.669469833374023,7.268796443939209,2,1,1,4
1509150294016.0,-1.6663644313812256,5.861005783081055,7.824251174926758,2,1,1,4
1509150294016.0,-0.7086837291717529,5.870582580566406,7.354987621307373,2,1,1,4
1509150294016.0,-0.8619126081466675,5.621585369110107,8.02536392211914,2,1,1,4
1509150294016.0,-0.7086837291717529,5.535394191741943,8.101978302001953,2,1,1,4
1509150294016.0,-0.6703764796257019,5.190629482269287,8.149862289428711,2,1,1,4
1509150294016.0,-0.47884035110473633,4.711789131164551,8.35097599029541,2,1,1,4
1509150294016.0,0.33518823981285095,4.51067590713501,9.394847869873047,2,1,1,4
1509150294016.0,-0.871489405632019,2.806004285812378,8.992621421813965,2,1,1,4
1509150294016.0,-1.072602391242981,1.4748282432556152,8.312667846679688,2,1,1,4
1509150294016.0,0.7852981686592102,1.1492167711257935,8.772355079650879,2,1,1,4
1509150294016.0,0.7469909191131592,0.028730420395731926,10.90798282623291,2,1,1,4
1509150294016.0,-0.2777273952960968,-1.0630255937576294,9.768342971801758,2,1,1,4
1509150294016.0,-0.6703764796257019,-0.38307225704193115,9.672574996948242,2,1,1,4
1509150294016.0,0.6129156351089478,0.22026655077934265,9.720458984375,2,1,1,4
1509150294016.0,0.3447650372982025,-0.13407529890537262,9.835380554199219,2,1,1,4
1509150294016.0,0.33518823981285095,-0.22026655077934265,9.739612579345703,2,1,1,4
1509150294016.0,0.26815059781074524,-0.12449848651885986,9.816226959228516,2,1,1,4
1509150294016.0,0.2777273952960968,-0.15322890877723694,9.84495735168457,2,1,1,4
1509150294016.0,0.2298433631658554,-0.1628057211637497,9.806650161743164,2,1,1,4
1509150294016.0,0.38307225704193115,-0.17238251864910126,9.768342971801758,2,1,1,4
1509150294016.0,0.2968810200691223,-0.17238251864910126,9.768342971801758,2,1,1,4
1509150294016.0,0.26815059781074524,-0.181959331035614,9.787496566772461,2,1,1,4
1509150294016.0,0.33518823981285095,-0.181959331035614,9.825803756713867,2,1,1,4
1509150294016.0,0.2585737705230713,-0.1628057211637497,9.825803756713867,2,1,1,4
1509150294016.0,0.2585737705230713,-0.17238251864910126,9.758766174316406,2,1,1,4
1509150294016.0,0.2777273952960968,-0.17238251864910126,9.854534149169922,2,1,1,4
1509150294016.0,0.2968810200691223,-0.17238251864910126,9.816226959228516,2,1,1,4
1509150294016.0,0.3256114423274994,-0.19153612852096558,9.787496566772461,2,1,1,4
1509150294016.0,0.2298433631658554,-0.17238251864910126,9.768342971801758,2,1,1,4
1509150294016.0,0.3256114423274994,-0.20111294090747833,9.806650161743164,2,1,1,4
1509150294016.0,0.28730419278144836,-0.17238251864910126,9.797073364257812,2,1,1,4
1509150294016.0,0.3256114423274994,-0.17238251864910126,9.758766174316406,2,1,1,4
1509150294016.0,0.3064578175544739,-0.17238251864910126,9.77791976928711,2,1,1,4
1509150294016.0,0.28730419278144836,-0.1628057211637497,9.816226959228516,2,1,1,4
1509150294016.0,0.2585737705230713,-0.15322890877723694,9.797073364257812,2,1,1,4
1509150294016.0,0.24899697303771973,-0.13407529890537262,9.816226959228516,2,1,1,4
1509150294016.0,0.2777273952960968,-0.14365209639072418,9.730035781860352,2,1,1,4
1509150294016.0,0.4405331015586853,-0.2777273952960968,9.490615844726562,3,1,1,4
1509150294016.0,0.2585737705230713,-0.2968810200691223,9.605537414550781,3,1,1,4
1509150294016.0,0.2585737705230713,-0.31603461503982544,9.567230224609375,3,1,1,4
1509150294016.0,0.22026655077934265,-0.33518823981285095,9.624691009521484,3,1,1,4
1509150294016.0,0.24899697303771973,-0.24899697303771973,9.825803756713867,3,1,1,4
1509150294016.0,0.3064578175544739,-0.26815059781074524,9.797073364257812,3,1,1,4
1509150294016.0,0.2585737705230713,-0.24899697303771973,9.96945571899414,3,1,1,4
1509150294016.0,0.2106897532939911,-0.26815059781074524,9.854534149169922,3,1,1,4
1509150294016.0,0.2777273952960968,-0.23942017555236816,9.825803756713867,3,1,1,4
1509150294016.0,0.363918662071228,-0.31603461503982544,9.66299819946289,3,1,1,4
1509150294016.0,0.2777273952960968,-0.2968810200691223,9.605537414550781,3,1,1,4
1509150294016.0,0.13407529890537262,-0.3064578175544739,9.701305389404297,3,1,1,4
1509150294016.0,0.3064578175544739,-0.3447650372982025,9.787496566772461,3,1,1,4
1509150294016.0,0.47884035110473633,-0.33518823981285095,9.797073364257812,3,1,1,4
1509150294016.0,0.2777273952960968,-0.363918662071228,9.691728591918945,3,1,1,4
1509150294016.0,0.2106897532939911,-0.33518823981285095,9.77791976928711,3,1,1,4
1509150294016.0,0.181959331035614,-0.3447650372982025,9.787496566772461,3,1,1,4
1509150294016.0,0.4405331015586853,-0.3447650372982025,9.787496566772461,3,1,1,4
1509150294016.0,0.4118026793003082,-0.35434186458587646,9.624691009521484,3,1,1,4
1509150294016.0,0.2777273952960968,-0.3447650372982025,9.691728591918945,3,1,1,4
1509150294016.0,0.2298433631658554,-0.3447650372982025,9.77791976928711,3,1,1,4
1509150294016.0,0.40222588181495667,-0.38307225704193115,9.835380554199219,3,1,1,4
1509150294016.0,0.2585737705230713,-0.35434186458587646,9.710882186889648,3,1,1,4
1509150294016.0,0.26815059781074524,-0.35434186458587646,9.624691009521484,3,1,1,4
1509150294016.0,0.2968810200691223,-0.38307225704193115,9.691728591918945,3,1,1,4
1509150294016.0,0.2298433631658554,-0.40222588181495667,9.864110946655273,3,1,1,4
1509150294016.0,0.20111294090747833,-0.4213795065879822,9.883264541625977,3,1,1,4
1509150294016.0,0.2298433631658554,-0.40222588181495667,9.806650161743164,3,1,1,4
1509150294016.0,0.2777273952960968,-0.40222588181495667,9.66299819946289,3,1,1,4
1509150294016.0,0.3447650372982025,-0.363918662071228,9.615114212036133,3,1,1,4
1509150294016.0,0.3256114423274994,-0.3926490843296051,9.710882186889648,3,1,1,4
1509150294016.0,0.181959331035614,-0.35434186458587646,9.835380554199219,3,1,1,4
1509150294016.0,0.22026655077934265,-0.3926490843296051,9.883264541625977,3,1,1,4
1509150294016.0,0.3064578175544739,-0.3926490843296051,9.749189376831055,3,1,1,4
1509150294016.0,0.2298433631658554,-0.3734954595565796,9.710882186889648,3,1,1,4
1509150294016.0,0.3064578175544739,-0.38307225704193115,9.768342971801758,3,1,1,4
1509150294016.0,0.20111294090747833,-0.35434186458587646,9.835380554199219,3,1,1,4
1509150294016.0,0.23942017555236816,-0.35434186458587646,9.730035781860352,3,1,1,4
1509150294016.0,0.2968810200691223,-0.33518823981285095,9.730035781860352,3,1,1,4
1509150294016.0,0.22026655077934265,-0.35434186458587646,9.816226959228516,3,1,1,4
1509150294016.0,0.13407529890537262,-0.35434186458587646,9.749189376831055,3,1,1,4
1509150294016.0,0.28730419278144836,-0.363918662071228,9.768342971801758,3,1,1,4
1509150294016.0,0.2968810200691223,-0.3734954595565796,9.797073364257812,3,1,1,4
1509150294016.0,0.24899697303771973,-0.3926490843296051,9.682151794433594,3,1,1,4
1509150294016.0,0.35434186458587646,-0.4213795065879822,9.720458984375,3,1,1,4
1509150294016.0,0.23942017555236816,-0.3447650372982025,9.730035781860352,3,1,1,4
1509150294016.0,0.31603461503982544,-0.3734954595565796,9.892841339111328,3,1,1,4
1509150294016.0,0.2777273952960968,-0.40222588181495667,9.710882186889648,3,1,1,4
1509150294016.0,0.28730419278144836,-0.3734954595565796,9.816226959228516,3,1,1,4
1509150294016.0,0.3447650372982025,-0.3256114423274994,9.816226959228516,3,1,1,4
1509150294016.0,0.2777273952960968,-0.28730419278144836,9.758766174316406,3,1,1,4
1509150294016.0,0.24899697303771973,-0.3064578175544739,9.749189376831055,3,1,1,4
1509150294016.0,0.40222588181495667,-0.3064578175544739,9.682151794433594,3,1,1,4
1509150294016.0,0.3256114423274994,-0.33518823981285095,9.710882186889648,3,1,1,4
1509150294016.0,0.2298433631658554,-0.3256114423274994,9.672574996948242,3,1,1,4
1509150294016.0,0.2777273952960968,-0.3447650372982025,9.768342971801758,3,1,1,4
1509150294016.0,0.26815059781074524,-0.363918662071228,9.739612579345703,3,1,1,4
1509150294016.0,0.2585737705230713,-0.35434186458587646,9.787496566772461,3,1,1,4
1509150294016.0,0.2968810200691223,-0.35434186458587646,9.84495735168457,3,1,1,4
1509150294016.0,0.3447650372982025,-0.35434186458587646,9.720458984375,3,1,1,4
1509150294016.0,0.3256114423274994,-0.33518823981285095,9.749189376831055,3,1,1,4
1509150294016.0,0.2968810200691223,-0.31603461503982544,9.691728591918945,3,1,1,4
1509150294016.0,0.3734954595565796,-0.3064578175544739,9.701305389404297,3,1,1,4
1509150294016.0,0.24899697303771973,-0.31603461503982544,9.701305389404297,3,1,1,4
1509150294016.0,0.3447650372982025,-0.24899697303771973,9.77791976928711,3,1,1,4
1509150294016.0,0.31603461503982544,-0.24899697303771973,9.701305389404297,3,1,1,4
1509150294016.0,0.22026655077934265,-0.26815059781074524,9.720458984375,3,1,1,4
1509150294016.0,0.35434186458587646,-0.26815059781074524,9.816226959228516,3,1,1,4
1509150294016.0,0.2777273952960968,-0.363918662071228,9.720458984375,3,1,1,4
1509150294016.0,0.31603461503982544,-0.2968810200691223,9.749189376831055,3,1,1,4
1509150294016.0,0.2106897532939911,-0.3064578175544739,9.806650161743164,3,1,1,4
1509150294016.0,0.2777273952960968,-0.35434186458587646,9.787496566772461,3,1,1,4
1509150294016.0,0.33518823981285095,-0.33518823981285095,9.710882186889648,3,1,1,4
1509156454400.0,0.4213795065879822,2.126051187515259,9.634267807006836,4,1,1,4
1509156454400.0,0.4596867263317108,2.1164743900299072,9.605537414550781,4,1,1,4
1509156454400.0,0.10534487664699554,2.2026655673980713,9.232041358947754,4,1,1,4
1509156454400.0,0.07661445438861847,1.944091796875,9.47146224975586,4,1,1,4
1509156454400.0,-0.009576806798577309,2.0590133666992188,10.113107681274414,4,1,1,4
1509156454400.0,0.20111294090747833,2.0207061767578125,9.730035781860352,4,1,1,4
1509156454400.0,0.507570743560791,1.9153614044189453,9.2033109664917,4,1,1,4
1509156454400.0,0.3256114423274994,2.2409727573394775,9.308655738830566,4,1,1,4
1509156454400.0,0.45010992884635925,1.8100165128707886,9.959878921508789,4,1,1,4
1509156454400.0,0.181959331035614,2.0398597717285156,9.59596061706543,4,1,1,4
1509156454400.0,0.019153613597154617,2.2026655673980713,8.992621421813965,4,1,1,4
1509156454400.0,-0.13407529890537262,1.522712230682373,10.362105369567871,4,1,1,4
1509156454400.0,-0.24899697303771973,1.6950948238372803,9.730035781860352,4,1,1,4
1509156454400.0,-0.009576806798577309,1.9632453918457031,9.289502143859863,4,1,1,4
1509156454400.0,0.4213795065879822,1.8770540952682495,9.84495735168457,4,1,1,4
1509156454400.0,0.4692635238170624,2.212242364883423,9.41400146484375,4,1,1,4
1509156454400.0,0.2106897532939911,2.097320795059204,9.040505409240723,4,1,1,4
1509156454400.0,-0.12449848651885986,2.183511972427368,9.615114212036133,4,1,1,4
1509156454400.0,-0.181959331035614,2.231395959854126,9.394847869873047,4,1,1,4
1509156454400.0,-0.06703764945268631,2.279279947280884,9.241618156433105,4,1,1,4
1509156454400.0,-0.06703764945268631,2.1164743900299072,8.695740699768066,4,1,1,4
1509156454400.0,0.07661445438861847,2.0207061767578125,9.77791976928711,4,1,1,4
1509156454400.0,0.2777273952960968,2.0590133666992188,9.557653427124023,4,1,1,4
1509156454400.0,0.15322890877723694,2.451662540435791,9.576807022094727,4,1,1,4
1509156454400.0,0.3926490843296051,2.0590133666992188,9.35654067993164,4,1,1,4
1509156454400.0,-0.4692635238170624,2.4420857429504395,9.59596061706543,4,1,1,4
1509156454400.0,-0.07661445438861847,1.8483237028121948,9.500192642211914,4,1,1,4
1509156454400.0,-0.6799532771110535,2.1547815799713135,9.117119789123535,4,1,1,4
1509156454400.0,0.15322890877723694,1.656787633895874,9.174580574035645,4,1,1,4
1509156454400.0,-0.17238251864910126,2.250549554824829,8.983044624328613,4,1,1,4
1509156454400.0,0.33518823981285095,1.9728221893310547,9.940725326538086,4,1,1,4
1509156454400.0,-0.009576806798577309,2.3942017555236816,8.877699851989746,4,1,1,4
1509156454400.0,-0.07661445438861847,2.298433542251587,9.682151794433594,4,1,1,4
1509156454400.0,-0.26815059781074524,2.0398597717285156,9.097966194152832,4,1,1,4
1509156454400.0,-0.6607996821403503,2.403778553009033,10.017339706420898,4,1,1,4
1509156454400.0,0.0,2.183511972427368,8.868123054504395,4,1,1,4
1509156454400.0,0.0,2.365471363067627,9.059659004211426,4,1,1,4
1509156454400.0,-0.17238251864910126,2.403778553009033,9.433155059814453,4,1,1,4
1509156454400.0,-0.17238251864910126,2.365471363067627,9.404424667358398,4,1,1,4
1509156454400.0,0.24899697303771973,2.3750481605529785,9.337387084960938,4,1,1,4
1509156454400.0,0.08619125932455063,2.346317768096924,9.557653427124023,4,1,1,4
1509156454400.0,0.1149216815829277,2.183511972427368,8.791508674621582,4,1,1,4
1509156454400.0,-0.5841852426528931,2.6144683361053467,9.634267807006836,4,1,1,4
1509156454400.0,0.028730420395731926,1.9823989868164062,9.404424667358398,4,1,1,4
1509156454400.0,0.13407529890537262,2.518700122833252,9.002198219299316,4,1,1,4
1509156454400.0,0.2585737705230713,2.4899697303771973,10.065223693847656,4,1,1,4
1509156454400.0,0.6512228846549988,2.279279947280884,9.35654067993164,4,1,1,4
1509156454400.0,0.038307227194309235,2.6431987285614014,9.193734169006348,4,1,1,4
1509156454400.0,-0.1628057211637497,2.4612393379211426,9.634267807006836,4,1,1,4
1509156454400.0,-0.06703764945268631,2.4420857429504395,9.08838939666748,4,1,1,4
1509156454400.0,0.23942017555236816,2.4612393379211426,8.9064302444458,4,1,1,4
1509156454400.0,0.3926490843296051,2.585737943649292,9.078812599182129,4,1,1,4
1509156454400.0,0.10534487664699554,2.3367409706115723,10.295066833496094,4,1,1,4
1509156454400.0,0.507570743560791,2.346317768096924,8.753201484680176,4,1,1,4
1509156454400.0,0.23942017555236816,2.5665841102600098,9.59596061706543,4,1,1,4
1509156454400.0,0.9481038451194763,2.145204782485962,9.136273384094238,4,1,1,4
1509156454400.0,1.1013327836990356,2.470816135406494,9.289502143859863,4,1,1,4
1509156454400.0,0.7757213711738586,2.4899697303771973,9.959878921508789,4,1,1,4
1509156454400.0,1.216254472732544,1.944091796875,8.370129585266113,4,1,1,4
1509156454400.0,0.15322890877723694,2.537853717803955,9.806650161743164,4,1,1,4
1509156454400.0,0.4692635238170624,2.212242364883423,9.835380554199219,4,1,1,4
1509156454400.0,0.49799394607543945,2.298433542251587,9.165003776550293,4,1,1,4
1509156454400.0,0.727837324142456,1.9632453918457031,9.528923034667969,4,1,1,4
1509156454400.0,0.7852981686592102,1.8579005002975464,9.423578262329102,4,1,1,4
1509156454400.0,0.9959878921508789,1.7908629179000854,9.576807022094727,4,1,1,4
1509156454400.0,1.4077905416488647,1.8962076902389526,9.643844604492188,4,1,1,4
1509156454400.0,1.7142484188079834,2.0685901641845703,9.279925346374512,4,1,1,4
1509156454400.0,1.4173674583435059,2.1739351749420166,9.318233489990234,4,1,1,4
1509156454400.0,1.2066776752471924,1.8195933103561401,9.528923034667969,4,1,1,4
1509156454400.0,0.5841852426528931,2.1739351749420166,9.21288776397705,4,1,1,4
1509262360576.0,-1.2545616626739502,3.9456443786621094,8.71489429473877,5,1,1,4
1509262360576.0,-1.2545616626739502,4.01268196105957,8.619126319885254,5,1,1,4
1509262360576.0,-1.2258312702178955,3.974374771118164,8.676587104797363,5,1,1,4
1509262360576.0,-1.2449848651885986,4.022258758544922,8.628703117370605,5,1,1,4
1509262360576.0,-1.2545616626739502,4.022258758544922,8.619126319885254,5,1,1,4
1509262360576.0,-1.235408067703247,3.993528366088867,8.638279914855957,5,1,1,4
1509262360576.0,-1.2641384601593018,4.031835556030273,8.609549522399902,5,1,1,4
1509262360576.0,-1.1875240802764893,3.955221176147461,8.686163902282715,5,1,1,4
1509262360576.0,-1.3215993642807007,4.050989151000977,8.561665534973145,5,1,1,4
1509262360576.0,-1.216254472732544,3.9647979736328125,8.65743350982666,5,1,1,4
1509262360576.0,-1.2258312702178955,3.974374771118164,8.647856712341309,5,1,1,4
1509262360576.0,-1.1971008777618408,3.936067581176758,8.667010307312012,5,1,1,4
1509262360576.0,-1.235408067703247,4.1180267333984375,8.40843677520752,5,1,1,4
1509247156224.0,8.726394653320312,2.4309234619140625,-4.3424835205078125,6,1,1,4
1509247156224.0,8.59710693359375,2.7693023681640625,-4.1509552001953125,6,1,1,4
1509247156224.0,11.327301025390625,1.2018890380859375,-1.9530792236328125,6,1,1,4
1509247156224.0,4.578033447265625,4.8921661376953125,-5.9442138671875,6,1,1,4
1509247156224.0,3.341033935546875,3.4189300537109375,-3.1844940185546875,6,1,1,4
1509247156224.0,19.201019287109375,-8.991012573242188,1.5328826904296875,6,1,1,4
1509247156224.0,-5.1591796875,9.959884643554688,-5.1102294921875,6,1,1,4
1509247156224.0,12.39111328125,-0.321624755859375,-2.07757568359375,6,1,1,4
1509247156224.0,10.14935302734375,1.2322235107421875,-4.1796875,6,1,1,4
1509247156224.0,5.1247100830078125,6.7740020751953125,-2.190093994140625,6,1,1,4
1509247156224.0,13.144485473632812,0.7884979248046875,-2.13104248046875,6,1,1,4
1509247156224.0,0.0106964111328125,10.063629150390625,-5.1964263916015625,6,1,1,4
1509247156224.0,17.527481079101562,-5.1036376953125,0.3166351318359375,6,1,1,4
1509247156224.0,-2.1496734619140625,10.471450805664062,-6.8827362060546875,6,1,1,4
1509247156224.0,10.949005126953125,0.2976837158203125,-0.846954345703125,6,1,1,4
1509247156224.0,13.261016845703125,-2.81317138671875,-1.8700714111328125,6,1,1,4
1509247156224.0,4.207733154296875,6.063720703125,-2.916351318359375,6,1,1,4
1509247156224.0,14.886672973632812,-4.1539306640625,-0.570831298828125,6,1,1,4
1509247156224.0,1.9420318603515625,8.646270751953125,-5.5786895751953125,6,1,1,4
1509247156224.0,17.198684692382812,-8.541702270507812,4.5615386962890625,6,1,1,4
1509247156224.0,0.8438720703125,10.451492309570312,-3.8101806640625,6,1,1,4
1509247156224.0,14.776535034179688,-5.552947998046875,3.644561767578125,6,1,1,4
1509247156224.0,0.76885986328125,9.496200561523438,-9.68475341796875,6,1,1,4
1509247156224.0,10.631378173828125,-1.2178497314453125,0.38446044921875,6,1,1,4
1509247156224.0,10.86920166015625,-2.7493438720703125,-3.2483367919921875,6,1,1,4
1509247156224.0,5.2787322998046875,3.933685302734375,-4.417510986328125,6,1,1,4
1509247156224.0,14.014389038085938,-3.0142974853515625,-2.5300750732421875,6,1,1,4
1509247156224.0,2.3713836669921875,8.180206298828125,-5.5571441650390625,6,1,1,4
1509247156224.0,15.7078857421875,-4.465179443359375,-0.02734375,6,1,1,4
1509247156224.0,3.302734375,7.4810791015625,-3.94744873046875,6,1,1,4
1509247156224.0,15.505172729492188,-7.16424560546875,3.3724212646484375,6,1,1,4
1509247156224.0,4.5509033203125,8.37652587890625,-3.069580078125,6,1,1,4
1509247156224.0,15.912185668945312,-9.102752685546875,4.95819091796875,6,1,1,4
1509247156224.0,4.092010498046875,7.7939300537109375,-3.9259033203125,6,1,1,4
1509247156224.0,14.695938110351562,-6.4603424072265625,6.010833740234375,6,1,1,4
1509247156224.0,1.6052398681640625,8.311080932617188,-4.998504638671875,6,1,1,4
1509247156224.0,13.70074462890625,-6.7452545166015625,6.211944580078125,6,1,1,4
1509247156224.0,3.1223602294921875,6.418060302734375,-8.198745727539062,6,1,1,4
1509247156224.0,11.691207885742188,-5.976715087890625,4.667694091796875,6,1,1,4
1509247156224.0,7.5644073486328125,-2.323974609375,-0.6657867431640625,6,1,1,4
1509247156224.0,7.399200439453125,1.2841033935546875,-2.473419189453125,6,1,1,4
1509247156224.0,14.1348876953125,-5.4651641845703125,-1.01055908203125,6,1,1,4
1509247156224.0,2.2077789306640625,6.4124755859375,-2.90277099609375,6,1,1,4
1509247156224.0,15.201904296875,-6.809906005859375,2.4945526123046875,6,1,1,4
1509247156224.0,1.3562469482421875,8.125930786132812,-5.49969482421875,6,1,1,4
1509247156224.0,16.378265380859375,-8.010986328125,6.4362030029296875,6,1,1,4
1509247156224.0,-2.776947021484375,10.953475952148438,-7.9489593505859375,6,1,1,4
1509247156224.0,16.728622436523438,-7.6957550048828125,7.404266357421875,6,1,1,4
1509247156224.0,-1.6325225830078125,8.742828369140625,-6.9609527587890625,6,1,1,4
1509247156224.0,13.357574462890625,-4.9695587158203125,4.451416015625,6,1,1,4
1509247156224.0,6.447113037109375,2.9536590576171875,-2.1589813232421875,6,1,1,4
1509247156224.0,7.9019927978515625,1.7334136962890625,-3.1429901123046875,6,1,1,4
1509247156224.0,14.079833984375,-5.295166015625,4.889556884765625,6,1,1,4
1509247156224.0,5.4455413818359375,6.321502685546875,-5.855621337890625,6,1,1,4
1509247156224.0,15.746994018554688,-6.547332763671875,5.8264923095703125,6,1,1,4
1509247156224.0,4.2364654541015625,8.058883666992188,-4.291412353515625,6,1,1,4
1509247156224.0,14.770156860351562,-5.105224609375,5.5846710205078125,6,1,1,4
1509247156224.0,2.7512664794921875,7.2536468505859375,-5.9944915771484375,6,1,1,4
1509247156224.0,13.892288208007812,-2.8083953857421875,4.2910003662109375,6,1,1,4
1509247156224.0,4.195770263671875,5.2369232177734375,-3.13421630859375,6,1,1,4
1509247156224.0,12.08306884765625,-0.50677490234375,3.9470367431640625,6,1,1,4
1509247156224.0,6.3657073974609375,3.0510101318359375,-4.8229217529296875,6,1,1,4
1509247156224.0,7.5596160888671875,4.2648773193359375,-4.6593170166015625,6,1,1,4
1509247156224.0,9.153350830078125,3.10687255859375,-8.404647827148438,6,1,1,4
1509247156224.0,3.6131744384765625,7.0756683349609375,-9.7701416015625,6,1,1,4
1509247156224.0,12.419845581054688,-1.6679534912109375,6.2135467529296875,6,1,1,4
1509247156224.0,4.51898193359375,5.8346710205078125,-5.1517333984375,6,1,1,4
1509247156224.0,12.979293823242188,-3.9017486572265625,9.348358154296875,6,1,1,4
1509247156224.0,6.98101806640625,6.047760009765625,-7.6528778076171875,6,1,1,4
1509247156224.0,13.265792846679688,-3.821136474609375,3.5296478271484375,6,1,1,4
1509247156224.0,4.8334197998046875,3.644775390625,-3.8564605712890625,6,1,1,4
1509247156224.0,9.407943725585938,0.945709228515625,-2.716827392578125,6,1,1,4
1509247156224.0,12.185226440429688,-1.6041107177734375,5.630157470703125,6,1,1,4
1509247156224.0,7.0943450927734375,5.0206451416015625,-9.27215576171875,6,1,1,4
1509247156224.0,14.50201416015625,-6.3119049072265625,7.0970001220703125,6,1,1,4
1509247156224.0,3.0848541259765625,8.337417602539062,-7.5387420654296875,6,1,1,4
1509247156224.0,14.954513549804688,-5.15631103515625,6.56390380859375,6,1,1,4
1509247156224.0,3.8757476806640625,7.770782470703125,-5.854034423828125,6,1,1,4
1509247156224.0,13.208343505859375,-3.735748291015625,4.4865264892578125,6,1,1,4
1509247156224.0,4.635498046875,5.8282928466796875,-4.8380889892578125,6,1,1,4
1509247156224.0,12.077468872070312,-0.5474700927734375,0.8944244384765625,6,1,1,4
1509247156224.0,6.300262451171875,4.0693511962890625,-3.690460205078125,6,1,1,4
1509247156224.0,10.395156860351562,0.786102294921875,-0.91558837890625,6,1,1,4
1509247156224.0,9.765472412109375,-0.2138824462890625,-2.28985595703125,6,1,1,4
1509247156224.0,5.7990875244140625,5.0517730712890625,-6.849212646484375,6,1,1,4
1509247156224.0,13.683990478515625,-2.9791717529296875,2.9638214111328125,6,1,1,4
1509247156224.0,5.898040771484375,5.901702880859375,-5.4071044921875,6,1,1,4
1509247156224.0,14.457321166992188,-4.4611968994140625,5.366790771484375,6,1,1,4
1509247156224.0,2.961944580078125,7.62713623046875,-3.4845733642578125,6,1,1,4
1509247156224.0,13.779754638671875,-4.0821075439453125,6.9581451416015625,6,1,1,4
1509247156224.0,4.4423675537109375,9.384475708007812,-18.152236938476562,6,1,1,4
1509247156224.0,11.213973999023438,-1.082977294921875,2.40277099609375,6,1,1,4
1509247156224.0,8.136627197265625,3.81317138671875,-14.743698120117188,6,1,1,4
1509247156224.0,7.958648681640625,2.3207855224609375,-3.741546630859375,6,1,1,4
1509247156224.0,11.45098876953125,-2.4237213134765625,-0.01617431640625,6,1,1,4
1509247156224.0,4.9220123291015625,6.091644287109375,-6.1876220703125,6,1,1,4
1509247156224.0,13.67919921875,-4.24652099609375,4.5719146728515625,6,1,1,4
1509247156224.0,6.6569976806640625,4.635986328125,-5.2666473388671875,6,1,1,4
1509247156224.0,11.955368041992188,-2.60089111328125,2.05401611328125,6,1,1,4
1509247156224.0,9.048019409179688,1.044677734375,0.22406005859375,6,1,1,4
1509247156224.0,8.92510986328125,2.84271240234375,-3.6018829345703125,6,1,1,4
1509247156224.0,10.45660400390625,0.881866455078125,-2.759918212890625,6,1,1,4
1509247156224.0,9.58990478515625,1.0470733642578125,-1.765533447265625,6,1,1,4
1509247156224.0,9.293014526367188,1.9401092529296875,-2.8524932861328125,6,1,1,4
1509247156224.0,9.842086791992188,1.4117889404296875,-3.0991058349609375,6,1,1,4
1509247156224.0,9.6649169921875,1.531494140625,-2.6354217529296875,6,1,1,4
1509247156224.0,8.851699829101562,2.8068084716796875,-2.6402130126953125,6,1,1,4
1509247156224.0,8.53326416015625,3.406951904296875,-2.939483642578125,6,1,1,4
1509247156224.0,8.644195556640625,3.269683837890625,-3.08233642578125,6,1,1,4
1509247156224.0,8.814971923828125,3.3199615478515625,-3.5133056640625,6,1,1,4
1509247156224.0,8.77587890625,3.4141387939453125,-3.3896026611328125,6,1,1,4
1509247156224.0,8.6082763671875,3.449249267578125,-2.9658203125,6,1,1,4
1509247156224.0,8.79901123046875,3.396575927734375,-3.109466552734375,6,1,1,4
1509247156224.0,8.713623046875,3.3885955810546875,-2.6888885498046875,6,1,1,4
1509247156224.0,8.72479248046875,3.40057373046875,-3.075958251953125,6,1,1,4
1509247156224.0,8.752731323242188,3.34869384765625,-3.1414031982421875,6,1,1,4
1509247156224.0,8.878021240234375,3.2449493408203125,-2.9985504150390625,6,1,1,4
1509251612672.0,-0.9289502501487732,0.4405331015586853,11.061211585998535,7,1,1,4
1509251612672.0,0.6607996821403503,1.2832920551300049,7.134721279144287,7,1,1,4
1509251612672.0,-0.09576806426048279,3.0166940689086914,8.418013572692871,7,1,1,4
1509251612672.0,0.8427590131759644,1.6663644313812256,12.469002723693848,7,1,1,4
1509251612672.0,1.5322890281677246,1.1683704853057861,9.84495735168457,7,1,1,4
1509251612672.0,0.4118026793003082,1.8387469053268433,7.603984832763672,7,1,1,4
1509251612672.0,-0.2968810200691223,3.6583402156829834,8.705317497253418,7,1,1,4
1509251612672.0,-0.009576806798577309,5.008669853210449,8.159439086914062,7,1,1,4
1509251612672.0,-0.871489405632019,2.8155810832977295,11.30063247680664,7,1,1,4
1509251612672.0,0.2585737705230713,2.7964274883270264,6.617573261260986,7,1,1,4
1509251612672.0,-0.038307227194309235,4.1180267333984375,8.686163902282715,7,1,1,4
1509251612672.0,0.363918662071228,5.372588634490967,9.567230224609375,7,1,1,4
1509251612672.0,1.2737152576446533,2.786850690841675,8.89685344696045,7,1,1,4
1509251612672.0,0.2777273952960968,2.537853717803955,7.65186882019043,7,1,1,4
1509251612672.0,-0.5746083855628967,4.098873138427734,9.002198219299316,7,1,1,4
1509251612672.0,-0.3926490843296051,5.027823448181152,9.14585018157959,7,1,1,4
1509251612672.0,-1.0821791887283325,3.1028854846954346,9.184157371520996,7,1,1,4
1509251612672.0,0.0,3.1507694721221924,6.847416877746582,7,1,1,4
1509251612672.0,0.0,4.050989151000977,9.174580574035645,7,1,1,4
1509251612672.0,1.5131354331970215,4.242525577545166,10.074800491333008,7,1,1,4
1509251612672.0,0.45010992884635925,3.6104562282562256,7.048529624938965,7,1,1,4
1509251612672.0,-0.47884035110473633,3.840299606323242,8.47547435760498,7,1,1,4
1509251612672.0,1.4652514457702637,4.098873138427734,7.718906402587891,7,1,1,4
1509251612672.0,0.13407529890537262,4.098873138427734,11.444284439086914,7,1,1,4
1509251612672.0,0.2298433631658554,2.82515811920166,8.159439086914062,7,1,1,4
1509251612672.0,0.1628057211637497,3.993528366088867,8.034940719604492,7,1,1,4
1509251612672.0,1.4269442558288574,5.726930618286133,6.828263282775879,7,1,1,4
1509251612672.0,1.656787633895874,4.797980308532715,11.473014831542969,7,1,1,4
1509251612672.0,0.7182605266571045,2.3558945655822754,8.169015884399414,7,1,1,4
1509251612672.0,1.599326729774475,3.4093432426452637,6.129156112670898,7,1,1,4
1509251612672.0,1.8100165128707886,3.4380736351013184,11.425130844116211,7,1,1,4
1509251612672.0,1.8387469053268433,2.212242364883423,10.132261276245117,7,1,1,4
1509251612672.0,1.7142484188079834,2.5091233253479004,5.07570743560791,7,1,1,4
1509251612672.0,2.6240451335906982,2.8634653091430664,10.046070098876953,7,1,1,4
1509251612672.0,3.2178070545196533,4.520252704620361,8.178592681884766,7,1,1,4
1509251612672.0,2.8155810832977295,2.2409727573394775,11.616666793823242,7,1,1,4
1509251612672.0,0.727837324142456,0.9002198576927185,7.996633529663086,7,1,1,4
1509251612672.0,2.786850690841675,2.4133553504943848,7.738059997558594,7,1,1,4
1509251612672.0,2.8634653091430664,1.7334020137786865,12.239158630371094,7,1,1,4
1509251612672.0,1.1300631761550903,1.359906554222107,9.02135181427002,7,1,1,4
1509251612672.0,1.5705963373184204,2.097320795059204,6.904877662658691,7,1,1,4
1509251612672.0,2.6431987285614014,2.652775526046753,9.2033109664917,7,1,1,4
1509251612672.0,2.5282769203186035,3.2848446369171143,11.099518775939941,7,1,1,4
1509251612672.0,2.030282974243164,2.2218191623687744,7.929595947265625,7,1,1,4
1509251612672.0,1.0534487962722778,2.3080103397369385,7.929595947265625,7,1,1,4
1509251612672.0,1.5610195398330688,2.82515811920166,9.96945571899414,7,1,1,4
1509251612672.0,-0.047884032130241394,2.4229321479797363,11.760318756103516,7,1,1,4
1509251612672.0,-0.5746083855628967,1.0247182846069336,9.117119789123535,7,1,1,4
1509251612672.0,0.5554547905921936,2.8155810832977295,7.0772600173950195,7,1,1,4
1509251612672.0,1.072602391242981,2.806004285812378,9.720458984375,7,1,1,4
1509251612672.0,1.3503297567367554,3.8115692138671875,9.77791976928711,7,1,1,4
1509251612672.0,0.8427590131759644,2.7485435009002686,8.513781547546387,7,1,1,4
1509251612672.0,0.5171475410461426,2.9496564865112305,7.105990409851074,7,1,1,4
1509251612672.0,-0.3734954595565796,4.347870349884033,9.806650161743164,7,1,1,4
1509251612672.0,-0.6416460275650024,3.3423056602478027,11.626243591308594,7,1,1,4
1509251612672.0,-1.1492167711257935,3.141192674636841,6.57926607131958,7,1,1,4
1509251612672.0,0.06703764945268631,2.7772738933563232,8.791508674621582,7,1,1,4
1509251612672.0,-0.2298433631658554,3.6104562282562256,9.576807022094727,7,1,1,4
1509251612672.0,0.5937620401382446,2.652775526046753,10.898406028747559,7,1,1,4
1509251612672.0,-0.9672574996948242,1.7334020137786865,9.318233489990234,7,1,1,4
1509251612672.0,0.28730419278144836,3.3518824577331543,7.048529624938965,7,1,1,4
1509251612672.0,-1.0438719987869263,3.44765043258667,10.486603736877441,7,1,1,4
1509251612672.0,-0.7182605266571045,2.6815059185028076,11.166556358337402,7,1,1,4
1509251612672.0,0.14365209639072418,2.5091233253479004,6.3973069190979,7,1,1,4
1509251612672.0,0.6033388376235962,3.246537446975708,7.891288757324219,7,1,1,4
1509251612672.0,1.3694833517074585,4.424484729766846,9.337387084960938,7,1,1,4
1509251612672.0,0.4596867263317108,2.786850690841675,10.103530883789062,7,1,1,4
1509251612672.0,-0.22026655077934265,2.0877439975738525,8.513781547546387,7,1,1,4
1509251612672.0,-0.4692635238170624,3.466804027557373,8.734047889709473,7,1,1,4
1509251612672.0,-0.9289502501487732,2.892195701599121,11.281478881835938,7,1,1,4
1509251612672.0,-1.2258312702178955,1.072602391242981,11.348516464233398,7,1,1,4
1509251612672.0,0.9576807022094727,1.6376339197158813,7.489062786102295,7,1,1,4
1509251612672.0,-0.22026655077934265,3.2082302570343018,9.136273384094238,7,1,1,4
1509251612672.0,1.3024457693099976,3.773261785507202,9.47146224975586,7,1,1,4
1509251612672.0,0.689530074596405,2.959233283996582,9.232041358947754,7,1,1,4
1509251612672.0,0.507570743560791,1.8962076902389526,7.718906402587891,7,1,1,4
1509251612672.0,0.19153612852096558,2.8634653091430664,9.53849983215332,7,1,1,4
1509251612672.0,-1.1875240802764893,3.380612850189209,12.36365795135498,7,1,1,4
1509251612672.0,-1.0534487962722778,2.6623523235321045,9.069235801696777,7,1,1,4
1509251612672.0,1.1013327836990356,2.1068975925445557,8.274360656738281,7,1,1,4
1509251612672.0,0.4213795065879822,3.2369606494903564,8.724471092224121,7,1,1,4
1509251612672.0,0.9672574996948242,3.4763808250427246,10.218452453613281,7,1,1,4
1509251612672.0,1.2737152576446533,1.5418659448623657,9.442731857299805,7,1,1,4
1509251612672.0,1.37906014919281,0.9768342971801758,7.4316020011901855,7,1,1,4
1509251612672.0,1.4652514457702637,1.742978811264038,8.925583839416504,7,1,1,4
1509251612672.0,1.37906014919281,2.2697031497955322,12.641385078430176,7,1,1,4
1509251612672.0,1.944091796875,1.3311761617660522,8.427590370178223,7,1,1,4
1509251612672.0,2.5091233253479004,1.7908629179000854,7.374141216278076,7,1,1,4
1509251612672.0,2.365471363067627,2.806004285812378,9.615114212036133,7,1,1,4
1509251612672.0,2.7102363109588623,3.7158010005950928,10.017339706420898,7,1,1,4
1509251612672.0,2.097320795059204,2.470816135406494,7.6997528076171875,7,1,1,4
1509323177984.0,-3.093308687210083,5.851428985595703,6.655880928039551,8,1,1,4
1509323177984.0,-3.1220390796661377,5.449203014373779,7.51779317855835,8,1,1,4
1509323177984.0,-2.82515811920166,5.822698593139648,7.163451671600342,8,1,1,4
1509323177984.0,-3.00711727142334,5.679046630859375,7.105990409851074,8,1,1,4
1509323177984.0,-2.4899697303771973,6.291962146759033,6.732495307922363,8,1,1,4
1509323177984.0,-3.0837318897247314,6.215347766876221,6.368576526641846,8,1,1,4
1509323177984.0,-2.1930887699127197,6.167463779449463,7.690176010131836,8,1,1,4
1509323177984.0,-1.5897499322891235,6.588842868804932,6.588842868804932,8,1,1,4
1509323177984.0,-2.5474305152893066,6.3973069190979,6.617573261260986,8,1,1,4
1509323177984.0,-1.7908629179000854,6.224924564361572,7.115567684173584,8,1,1,4
1509323177984.0,-2.164358377456665,6.215347766876221,6.789956092834473,8,1,1,4
1509323177984.0,-2.1547815799713135,6.493074893951416,6.387730121612549,8,1,1,4
1509323177984.0,-2.298433542251587,6.761225700378418,6.7708024978637695,8,1,1,4
1509323177984.0,-2.1930887699127197,6.426037311553955,6.952761650085449,8,1,1,4
1509323177984.0,-2.164358377456665,6.71334171295166,6.45476770401001,8,1,1,4
1509323177984.0,-2.2601263523101807,6.7708024978637695,6.57926607131958,8,1,1,4
1509323177984.0,-2.652775526046753,6.435614109039307,6.675034523010254,8,1,1,4
1509323177984.0,-2.0590133666992188,7.086836814880371,5.717353820800781,8,1,1,4
1509323177984.0,-2.346317768096924,6.847416877746582,6.234501361846924,8,1,1,4
1509323177984.0,-2.212242364883423,6.320692539215088,7.259219646453857,8,1,1,4
1509323177984.0,-2.2697031497955322,6.646304130554199,6.311115741729736,8,1,1,4
1509323177984.0,-2.3750481605529785,6.186617374420166,7.096413612365723,8,1,1,4
1509323177984.0,0.05746084079146385,6.751648902893066,6.780379295349121,8,1,1,4
1509323177984.0,0.10534487664699554,6.89530086517334,6.445190906524658,8,1,1,4
1509323177984.0,-0.19153612852096558,6.560112476348877,7.287950038909912,8,1,1,4
1509323177984.0,0.5363011956214905,7.086836814880371,6.2632317543029785,8,1,1,4
1509323177984.0,-0.09576806426048279,6.856993675231934,6.45476770401001,8,1,1,4
1509323177984.0,-0.1628057211637497,6.598419666290283,7.1251444816589355,8,1,1,4
1509323177984.0,0.14365209639072418,6.9240312576293945,6.646304130554199,8,1,1,4
1509323177984.0,-0.7182605266571045,6.5696892738342285,6.914454460144043,8,1,1,4
1509323177984.0,-0.3064578175544739,6.655880928039551,6.703764915466309,8,1,1,4
1509323177984.0,0.38307225704193115,6.809109687805176,7.038952827453613,8,1,1,4
1509323177984.0,-0.4596867263317108,6.27280855178833,7.307103633880615,8,1,1,4
1509323177984.0,0.6320692300796509,6.8378400802612305,6.722918510437012,8,1,1,4
1509323177984.0,0.47884035110473633,6.627150535583496,6.703764915466309,8,1,1,4
1509323177984.0,-0.06703764945268631,6.607996463775635,7.546523571014404,8,1,1,4
1509323177984.0,1.0342950820922852,7.15387487411499,6.205770969390869,8,1,1,4
1509323177984.0,-0.2585737705230713,6.703764915466309,6.703764915466309,8,1,1,4
1509323177984.0,0.4118026793003082,6.943184852600098,6.3302693367004395,8,1,1,4
1509323177984.0,0.23942017555236816,7.46033239364624,6.387730121612549,8,1,1,4
1509323177984.0,-1.0342950820922852,6.9910688400268555,6.167463779449463,8,1,1,4
1509323177984.0,-0.5171475410461426,6.742072105407715,5.870582580566406,8,1,1,4
1509323177984.0,-0.3447650372982025,7.048529624938965,6.167463779449463,8,1,1,4
1509323177984.0,-1.8387469053268433,6.368576526641846,6.818686485290527,8,1,1,4
1509323177984.0,-0.6033388376235962,6.732495307922363,6.301538944244385,8,1,1,4
1509323177984.0,-1.2832920551300049,6.3302693367004395,7.1251444816589355,8,1,1,4
1509323177984.0,-1.0534487962722778,6.234501361846924,6.426037311553955,8,1,1,4
1509323177984.0,-0.5841852426528931,6.828263282775879,7.450755596160889,8,1,1,4
1509323177984.0,-0.06703764945268631,6.464344501495361,6.703764915466309,8,1,1,4
1509323177984.0,0.7852981686592102,6.971915245056152,6.540958881378174,8,1,1,4
1509323177984.0,0.9576807022094727,7.2783732414245605,6.004657745361328,8,1,1,4
1509323177984.0,1.37906014919281,7.316680431365967,6.282385349273682,8,1,1,4
1509323177984.0,0.7565677165985107,6.9910688400268555,6.3302693367004395,8,1,1,4
1509323177984.0,1.1204863786697388,6.406883716583252,7.5848307609558105,8,1,1,4
1509323177984.0,0.6991068720817566,6.799532890319824,5.947196960449219,8,1,1,4
1509323177984.0,0.6512228846549988,6.71334171295166,6.2632317543029785,8,1,1,4
1509323177984.0,0.47884035110473633,6.646304130554199,7.173028469085693,8,1,1,4
1509323177984.0,0.8810662031173706,7.3454108238220215,5.2480902671813965,8,1,1,4
1509323177984.0,1.1683704853057861,6.866570472717285,6.387730121612549,8,1,1,4
1509323177984.0,1.3024457693099976,6.914454460144043,6.6846113204956055,8,1,1,4
1509323177984.0,1.7812861204147339,7.115567684173584,6.349422931671143,8,1,1,4
1509323177984.0,1.9632453918457031,6.780379295349121,7.4316020011901855,8,1,1,4
1509323177984.0,2.078166961669922,7.422025203704834,5.602431774139404,8,1,1,4
1509323177984.0,2.5282769203186035,7.556100368499756,4.845864295959473,8,1,1,4
1509323177984.0,1.158793568611145,8.753201484680176,3.5625722408294678,8,1,1,4
1509323177984.0,1.0630255937576294,7.833827972412109,5.832275390625,8,1,1,4
1509323177984.0,1.5610195398330688,7.422025203704834,7.010222434997559,8,1,1,4
1509323177984.0,1.6184803247451782,7.2113356590271,6.45476770401001,8,1,1,4
1509323177984.0,1.235408067703247,7.134721279144287,6.282385349273682,8,1,1,4
1509323177984.0,1.8770540952682495,7.565677165985107,4.654327869415283,8,1,1,4
1509323177984.0,1.292868971824646,6.6846113204956055,7.565677165985107,8,1,1,4
1509323177984.0,1.6663644313812256,7.603984832763672,5.343858242034912,8,1,1,4
1509323177984.0,1.4460978507995605,7.182605266571045,6.943184852600098,8,1,1,4
1509323177984.0,1.7621324062347412,8.015787124633789,4.970362663269043,8,1,1,4
1509323177984.0,2.1068975925445557,7.7763671875,5.803544998168945,8,1,1,4
1509323177984.0,1.3215993642807007,7.833827972412109,3.993528366088867,8,1,1,4
1509323177984.0,1.7525556087493896,6.885724067687988,7.2113356590271,8,1,1,4
1509323177984.0,1.4173674583435059,7.33583402633667,5.95677375793457,8,1,1,4
1509323177984.0,0.871489405632019,6.694188117980957,7.2783732414245605,8,1,1,4
1509323177984.0,1.1875240802764893,7.747636795043945,4.721365928649902,8,1,1,4
1509323177984.0,1.1013327836990356,6.933608055114746,7.010222434997559,8,1,1,4
1509323177984.0,1.7621324062347412,7.824251174926758,4.922478675842285,8,1,1,4
1509323177984.0,1.072602391242981,7.2113356590271,6.655880928039551,8,1,1,4
1509323177984.0,1.2545616626739502,7.671022415161133,5.458779811859131,8,1,1,4
1509323177984.0,0.40222588181495667,7.163451671600342,6.129156112670898,8,1,1,4
1509323177984.0,1.6089035272598267,7.46033239364624,6.818686485290527,8,1,1,4
1509323177984.0,0.3926490843296051,7.326257228851318,5.7556610107421875,8,1,1,4
1509323177984.0,0.727837324142456,7.7763671875,5.57370138168335,8,1,1,4
1509323177984.0,1.1875240802764893,7.824251174926758,5.506663799285889,8,1,1,4
1509323177984.0,1.072602391242981,7.565677165985107,5.784391403198242,8,1,1,4
1509323177984.0,1.1971008777618408,7.690176010131836,5.200206279754639,8,1,1,4
1509323177984.0,0.8140285611152649,7.230489253997803,6.598419666290283,8,1,1,4
1509323177984.0,1.2449848651885986,7.536946773529053,6.224924564361572,8,1,1,4
1509323177984.0,1.0438719987869263,7.613561630249023,4.903325080871582,8,1,1,4
1509323177984.0,1.2258312702178955,7.33583402633667,5.851428985595703,8,1,1,4
1509323177984.0,1.2832920551300049,6.732495307922363,7.441178798675537,8,1,1,4
1509323177984.0,1.7142484188079834,8.101978302001953,4.76924991607666,8,1,1,4
1509323177984.0,0.8140285611152649,7.489062786102295,5.631162166595459,8,1,1,4
1509323177984.0,1.455674648284912,7.4316020011901855,6.473921298980713,8,1,1,4
1509323177984.0,1.2641384601593018,7.450755596160889,6.1770405769348145,8,1,1,4
1509323177984.0,1.4939818382263184,7.977479934692383,4.76924991607666,8,1,1,4
1509323177984.0,1.216254472732544,7.862558364868164,4.4532151222229,8,1,1,4
1509323177984.0,1.3311761617660522,7.249642848968506,6.818686485290527,8,1,1,4
1509323177984.0,1.944091796875,7.33583402633667,7.058106422424316,8,1,1,4
1509323177984.0,1.0534487962722778,7.872135162353516,4.261679172515869,8,1,1,4
1509323177984.0,1.723825216293335,7.1921820640563965,7.354987621307373,8,1,1,4
1509323177984.0,1.7812861204147339,7.939172744750977,4.999093055725098,8,1,1,4
1509323177984.0,1.5322890281677246,7.757213592529297,5.123591423034668,8,1,1,4
1509323177984.0,1.455674648284912,7.307103633880615,6.655880928039551,8,1,1,4
1509323177984.0,1.7046716213226318,7.680599212646484,6.301538944244385,8,1,1,4
1509323177984.0,1.3407529592514038,7.536946773529053,4.989516258239746,8,1,1,4
1509323177984.0,1.6950948238372803,7.565677165985107,5.123591423034668,8,1,1,4
1509323177984.0,1.8195933103561401,6.962338447570801,7.249642848968506,8,1,1,4
1509323177984.0,1.7621324062347412,7.527369976043701,5.037400245666504,8,1,1,4
1509323177984.0,1.7908629179000854,7.642292022705078,4.989516258239746,8,1,1,4
1509323177984.0,1.8483237028121948,6.981492042541504,6.675034523010254,8,1,1,4
1509323177984.0,1.8195933103561401,6.847416877746582,6.5696892738342285,8,1,1,4
1509323177984.0,2.1547815799713135,7.402871608734131,6.244078159332275,8,1,1,4
1509323177984.0,1.6855180263519287,7.412448406219482,5.659893035888672,8,1,1,4
1509323177984.0,1.2832920551300049,7.364564418792725,5.372588634490967,8,1,1,4
1509323177984.0,1.6089035272598267,6.943184852600098,7.15387487411499,8,1,1,4
1509323177984.0,1.3024457693099976,7.872135162353516,3.9169139862060547,8,1,1,4
1509323177984.0,1.1300631761550903,7.201758861541748,6.090848922729492,8,1,1,4
1509323177984.0,0.9864110946655273,7.086836814880371,5.822698593139648,8,1,1,4
1509323177984.0,1.2641384601593018,7.220912456512451,6.138733386993408,8,1,1,4
1509323177984.0,0.9864110946655273,7.201758861541748,6.119579315185547,8,1,1,4
1509323177984.0,1.4652514457702637,7.307103633880615,6.301538944244385,8,1,1,4
1509323177984.0,1.2449848651885986,7.307103633880615,6.550535678863525,8,1,1,4
1509323177984.0,1.2258312702178955,7.556100368499756,5.822698593139648,8,1,1,4
1509323177984.0,0.9289502501487732,7.220912456512451,6.339846134185791,8,1,1,4
1509323177984.0,0.8906430602073669,7.2113356590271,5.870582580566406,8,1,1,4
1509323177984.0,0.8523358106613159,7.383718013763428,5.899312973022461,8,1,1,4
1509323177984.0,1.072602391242981,7.632715225219727,5.7556610107421875,8,1,1,4
1509323177984.0,0.8236053586006165,7.872135162353516,5.698200225830078,8,1,1,4
1509323177984.0,1.1300631761550903,7.671022415161133,5.717353820800781,8,1,1,4
1509323177984.0,1.0438719987869263,7.469909191131592,5.621585369110107,8,1,1,4
1509323309056.0,0.9959878921508789,6.512228488922119,6.876147270202637,9,1,1,4
1509323309056.0,0.9959878921508789,6.588842868804932,6.665457725524902,9,1,1,4
1509323309056.0,1.436521053314209,6.588842868804932,6.665457725524902,9,1,1,4
1509323309056.0,1.8770540952682495,6.971915245056152,6.378153324127197,9,1,1,4
1509323309056.0,1.7525556087493896,6.665457725524902,6.866570472717285,9,1,1,4
1509323309056.0,1.9632453918457031,7.259219646453857,5.1810526847839355,9,1,1,4
1509323309056.0,1.9823989868164062,7.402871608734131,6.004657745361328,9,1,1,4
1509323309056.0,1.8291701078414917,7.115567684173584,7.326257228851318,9,1,1,4
1509323309056.0,1.9536685943603516,7.412448406219482,5.544970989227295,9,1,1,4
1509323309056.0,1.9728221893310547,6.971915245056152,5.525817394256592,9,1,1,4
1509323309056.0,1.5705963373184204,6.751648902893066,6.722918510437012,9,1,1,4
1509323309056.0,1.3311761617660522,6.904877662658691,7.374141216278076,9,1,1,4
1509323309056.0,1.9249382019042969,7.4986395835876465,5.841852188110352,9,1,1,4
1509323309056.0,1.5897499322891235,6.512228488922119,8.178592681884766,9,1,1,4
1509323309056.0,1.580173134803772,7.0772600173950195,5.161899089813232,9,1,1,4
1509323309056.0,1.8770540952682495,7.201758861541748,5.70777702331543,9,1,1,4
1509323309056.0,1.6663644313812256,7.173028469085693,5.95677375793457,9,1,1,4
1509323309056.0,1.800439715385437,7.3454108238220215,5.95677375793457,9,1,1,4
1509323309056.0,1.6950948238372803,7.2783732414245605,5.679046630859375,9,1,1,4
1509323309056.0,1.4173674583435059,6.9910688400268555,6.196194171905518,9,1,1,4
1509323309056.0,1.4939818382263184,6.914454460144043,7.422025203704834,9,1,1,4
1509323309056.0,1.7908629179000854,7.5848307609558105,5.544970989227295,9,1,1,4
1509323309056.0,1.9153614044189453,7.134721279144287,6.301538944244385,9,1,1,4
1509323309056.0,2.1068975925445557,7.603984832763672,4.367023944854736,9,1,1,4
1509323309056.0,1.944091796875,6.962338447570801,5.975927352905273,9,1,1,4
1509323309056.0,2.011129379272461,6.646304130554199,7.230489253997803,9,1,1,4
1509323309056.0,1.9249382019042969,6.8378400802612305,5.880159378051758,9,1,1,4
1509323309056.0,1.8483237028121948,6.512228488922119,7.6997528076171875,9,1,1,4
1509323309056.0,2.164358377456665,7.15387487411499,5.056553840637207,9,1,1,4
1509323309056.0,1.8770540952682495,6.291962146759033,7.364564418792725,9,1,1,4
1509323309056.0,2.0207061767578125,6.6846113204956055,7.240066051483154,9,1,1,4
1509323309056.0,1.7812861204147339,6.856993675231934,6.531382083892822,9,1,1,4
1509323309056.0,1.599326729774475,6.818686485290527,7.058106422424316,9,1,1,4
1509323309056.0,2.5474305152893066,7.565677165985107,4.76924991607666,9,1,1,4
1509323309056.0,1.8387469053268433,6.809109687805176,6.751648902893066,9,1,1,4
1509323309056.0,2.2218191623687744,6.560112476348877,6.952761650085449,9,1,1,4
1509323309056.0,2.499546527862549,7.489062786102295,4.3861775398254395,9,1,1,4
1509323309056.0,2.5474305152893066,6.943184852600098,6.962338447570801,9,1,1,4
1509323309056.0,2.719813108444214,7.642292022705078,5.305551052093506,9,1,1,4
1509323309056.0,2.7293899059295654,7.536946773529053,5.65031623840332,9,1,1,4
1509323309056.0,1.5610195398330688,7.527369976043701,5.995080947875977,9,1,1,4
1509323309056.0,1.37906014919281,7.182605266571045,5.774814605712891,9,1,1,4
1509323309056.0,2.1164743900299072,7.3454108238220215,6.962338447570801,9,1,1,4
1509323309056.0,2.0590133666992188,7.393294811248779,4.999093055725098,9,1,1,4
1509323309056.0,2.8443117141723633,6.167463779449463,6.971915245056152,9,1,1,4
1509323309056.0,3.0837318897247314,6.033388137817383,7.230489253997803,9,1,1,4
1509323309056.0,3.160346269607544,6.828263282775879,5.535394191741943,9,1,1,4
1509323309056.0,3.399766445159912,6.665457725524902,6.617573261260986,9,1,1,4
1509323309056.0,3.2561142444610596,7.1251444816589355,4.750096321105957,9,1,1,4
1509323309056.0,3.2369606494903564,6.646304130554199,6.320692539215088,9,1,1,4
1509323309056.0,3.1699230670928955,7.1921820640563965,5.228936672210693,9,1,1,4
1509323309056.0,2.978386878967285,7.230489253997803,5.420472621917725,9,1,1,4
1509323309056.0,3.0837318897247314,6.646304130554199,6.378153324127197,9,1,1,4
1509323309056.0,3.0837318897247314,7.565677165985107,4.3861775398254395,9,1,1,4
1509323309056.0,3.07415509223938,6.655880928039551,7.2113356590271,9,1,1,4
1509323309056.0,2.7772738933563232,7.316680431365967,4.702212333679199,9,1,1,4
1509323309056.0,2.8155810832977295,7.0772600173950195,5.458779811859131,9,1,1,4
1509323309056.0,2.9879636764526367,6.320692539215088,7.15387487411499,9,1,1,4
1509323309056.0,2.5953147411346436,6.9240312576293945,5.343858242034912,9,1,1,4
1509323309056.0,2.9017724990844727,6.320692539215088,7.824251174926758,9,1,1,4
1509323309056.0,2.6431987285614014,7.2113356590271,5.736507415771484,9,1,1,4
1509323309056.0,2.9688100814819336,6.607996463775635,7.51779317855835,9,1,1,4
1509323309056.0,2.7006595134735107,7.489062786102295,4.63517427444458,9,1,1,4
1509323309056.0,2.738966703414917,5.841852188110352,7.680599212646484,9,1,1,4
1509323309056.0,2.8347349166870117,6.943184852600098,5.793968200683594,9,1,1,4
1509323309056.0,2.8634653091430664,7.0772600173950195,5.928043365478516,9,1,1,4
1509323309056.0,2.786850690841675,7.105990409851074,5.679046630859375,9,1,1,4
1509323309056.0,2.8826189041137695,6.971915245056152,6.110002517700195,9,1,1,4
1509323309056.0,3.141192674636841,7.249642848968506,5.592854976654053,9,1,1,4
1509323309056.0,3.026270866394043,6.847416877746582,6.244078159332275,9,1,1,4
1509323309056.0,3.1316158771514893,6.971915245056152,5.669469833374023,9,1,1,4
1509323309056.0,2.9688100814819336,6.732495307922363,6.828263282775879,9,1,1,4
1509323309056.0,3.160346269607544,7.1251444816589355,5.535394191741943,9,1,1,4
1509323309056.0,3.1220390796661377,6.426037311553955,6.876147270202637,9,1,1,4
1509323309056.0,2.9879636764526367,6.799532890319824,5.477933406829834,9,1,1,4
1509323309056.0,3.1699230670928955,5.870582580566406,7.728483200073242,9,1,1,4
1509323309056.0,3.00711727142334,6.818686485290527,5.841852188110352,9,1,1,4
1509323309056.0,3.112462282180786,6.550535678863525,6.157886981964111,9,1,1,4
1509323309056.0,2.978386878967285,6.378153324127197,6.004657745361328,9,1,1,4
1509323309056.0,3.19865345954895,6.742072105407715,5.363011837005615,9,1,1,4
1509323309056.0,3.2082302570343018,6.6846113204956055,6.157886981964111,9,1,1,4
1509323309056.0,3.1507694721221924,6.799532890319824,5.640739440917969,9,1,1,4
1509323309056.0,2.911349296569824,6.646304130554199,6.244078159332275,9,1,1,4
1509323309056.0,3.112462282180786,6.885724067687988,5.803544998168945,9,1,1,4
1509323309056.0,3.093308687210083,6.6846113204956055,6.215347766876221,9,1,1,4
1509323309056.0,2.7772738933563232,7.287950038909912,5.20978307723999,9,1,1,4
1509323309056.0,2.9305028915405273,7.2783732414245605,5.430049419403076,9,1,1,4
1509323309056.0,2.537853717803955,7.1921820640563965,5.564124584197998,9,1,1,4
1509323309056.0,2.604891538619995,7.450755596160889,4.558559894561768,9,1,1,4
1509323309056.0,3.160346269607544,6.703764915466309,6.89530086517334,9,1,1,4
1509323309056.0,3.0358476638793945,7.402871608734131,5.008669853210449,9,1,1,4
1509323309056.0,3.07415509223938,7.316680431365967,6.023811340332031,9,1,1,4
1509323309056.0,3.07415509223938,7.4316020011901855,5.602431774139404,9,1,1,4
1509323309056.0,3.0550012588500977,7.163451671600342,6.426037311553955,9,1,1,4
1509323309056.0,2.5474305152893066,7.15387487411499,5.995080947875977,9,1,1,4
1509323309056.0,1.9632453918457031,6.847416877746582,6.789956092834473,9,1,1,4
1509323309056.0,1.2641384601593018,7.1921820640563965,6.349422931671143,9,1,1,4
1509323309056.0,1.455674648284912,7.603984832763672,5.420472621917725,9,1,1,4
1509323309056.0,1.4077905416488647,7.575253963470459,5.343858242034912,9,1,1,4
1509323309056.0,1.3886369466781616,6.866570472717285,7.048529624938965,9,1,1,4
1509323309056.0,1.4077905416488647,7.738059997558594,4.702212333679199,9,1,1,4
1509323309056.0,1.3311761617660522,7.029376029968262,6.042964935302734,9,1,1,4
1509323309056.0,1.6663644313812256,7.546523571014404,5.4013190269470215,9,1,1,4
1509323309056.0,1.4652514457702637,7.010222434997559,7.096413612365723,9,1,1,4
1509323309056.0,1.8100165128707886,7.738059997558594,4.711789131164551,9,1,1,4
1509323309056.0,1.6950948238372803,6.904877662658691,6.9910688400268555,9,1,1,4
1509323309056.0,1.8195933103561401,7.374141216278076,5.822698593139648,9,1,1,4
1509323309056.0,1.4844050407409668,7.134721279144287,6.090848922729492,9,1,1,4
1509323309056.0,1.9345149993896484,7.785943984985352,4.587290287017822,9,1,1,4
1509323309056.0,1.656787633895874,7.4316020011901855,5.525817394256592,9,1,1,4
1509323309056.0,1.7334020137786865,7.393294811248779,5.928043365478516,9,1,1,4
1509323309056.0,1.4460978507995605,8.08282470703125,4.089296340942383,9,1,1,4
1509323309056.0,1.2641384601593018,6.876147270202637,6.253654956817627,9,1,1,4
1509323309056.0,1.50355863571167,7.623138427734375,4.587290287017822,9,1,1,4
1509323309056.0,1.6759412288665771,8.063671112060547,4.960785865783691,9,1,1,4
1509323309056.0,1.9345149993896484,7.556100368499756,6.876147270202637,9,1,1,4
1509323309056.0,1.886630892753601,8.130708694458008,4.6255974769592285,9,1,1,4
1509323309056.0,1.599326729774475,7.1921820640563965,5.497087001800537,9,1,1,4
1509323309056.0,1.723825216293335,7.038952827453613,7.0772600173950195,9,1,1,4
1509323309056.0,1.455674648284912,7.948749542236328,4.357447147369385,9,1,1,4
1509323309056.0,1.4173674583435059,7.096413612365723,6.493074893951416,9,1,1,4
1509323309056.0,1.7046716213226318,8.121131896972656,3.8786067962646484,9,1,1,4
1509323309056.0,1.5418659448623657,7.412448406219482,6.167463779449463,9,1,1,4
1509323309056.0,1.5131354331970215,7.489062786102295,5.784391403198242,9,1,1,4
1509323309056.0,1.6184803247451782,7.469909191131592,5.95677375793457,9,1,1,4
1509323309056.0,1.4460978507995605,7.182605266571045,7.297526836395264,9,1,1,4
1509323309056.0,1.6663644313812256,8.293514251708984,4.108449935913086,9,1,1,4
1509323309056.0,1.235408067703247,6.962338447570801,6.636727333068848,9,1,1,4
1509323309056.0,1.9345149993896484,8.101978302001953,3.9647979736328125,9,1,1,4
1509323309056.0,1.1492167711257935,6.847416877746582,6.617573261260986,9,1,1,4
1509323309056.0,1.6280571222305298,7.872135162353516,3.687070608139038,9,1,1,4
1509323309056.0,1.3503297567367554,6.847416877746582,7.412448406219482,9,1,1,4
1509323309056.0,2.1356279850006104,8.255207061767578,4.8267107009887695,9,1,1,4
1509323309056.0,1.8962076902389526,6.531382083892822,7.987056732177734,9,1,1,4
1509323309056.0,1.800439715385437,7.1921820640563965,5.535394191741943,9,1,1,4
1509323309056.0,1.7908629179000854,7.134721279144287,6.5696892738342285,9,1,1,4
1509323309056.0,1.742978811264038,6.742072105407715,6.828263282775879,9,1,1,4
1509323309056.0,1.7525556087493896,6.588842868804932,6.751648902893066,9,1,1,4
1509323309056.0,1.9823989868164062,6.426037311553955,6.89530086517334,9,1,1,4
1509323309056.0,1.8195933103561401,6.512228488922119,6.636727333068848,9,1,1,4
1509323309056.0,1.8195933103561401,6.655880928039551,6.847416877746582,9,1,1,4
1509323309056.0,1.800439715385437,6.521805286407471,6.981492042541504,9,1,1,4
1509323309056.0,1.944091796875,7.000645637512207,6.751648902893066,9,1,1,4
1509323309056.0,1.7334020137786865,6.502651691436768,6.8378400802612305,9,1,1,4
1509323309056.0,1.436521053314209,6.732495307922363,6.157886981964111,9,1,1,4
1509323309056.0,1.2737152576446533,6.100425720214844,7.709329605102539,9,1,1,4
1509323309056.0,1.5610195398330688,7.086836814880371,5.305551052093506,9,1,1,4
1509323309056.0,1.8387469053268433,6.368576526641846,8.283937454223633,9,1,1,4
1509323309056.0,1.5131354331970215,7.90086555480957,3.294421434402466,9,1,1,4
1509323309056.0,1.3024457693099976,6.311115741729736,7.661445617675781,9,1,1,4
1509323309056.0,1.580173134803772,7.393294811248779,5.669469833374023,9,1,1,4
1509323309056.0,1.6855180263519287,6.57926607131958,8.130708694458008,9,1,1,4
1509323309056.0,1.1875240802764893,7.048529624938965,6.655880928039551,9,1,1,4
1509323309056.0,1.4173674583435059,7.412448406219482,6.0621185302734375,9,1,1,4
1509323309056.0,1.3407529592514038,7.565677165985107,5.066130638122559,9,1,1,4
1509323309056.0,1.2066776752471924,6.799532890319824,6.0621185302734375,9,1,1,4
1509323309056.0,1.5610195398330688,6.904877662658691,6.694188117980957,9,1,1,4
1509323309056.0,1.4460978507995605,7.307103633880615,5.698200225830078,9,1,1,4
1509323309056.0,1.4173674583435059,7.326257228851318,5.861005783081055,9,1,1,4
1509323309056.0,1.599326729774475,6.9240312576293945,7.01979923248291,9,1,1,4
1509323309056.0,1.4652514457702637,6.71334171295166,7.2113356590271,9,1,1,4
1509323309056.0,1.5610195398330688,7.240066051483154,5.104437828063965,9,1,1,4
1509323309056.0,1.7046716213226318,6.138733386993408,8.389283180236816,9,1,1,4
1509323309056.0,1.886630892753601,7.240066051483154,4.9799394607543945,9,1,1,4
1509323309056.0,1.7908629179000854,6.253654956817627,8.197746276855469,9,1,1,4
1509323309056.0,1.723825216293335,7.173028469085693,5.679046630859375,9,1,1,4
1509323309056.0,1.944091796875,6.052541732788086,7.891288757324219,9,1,1,4
1509323309056.0,1.436521053314209,6.550535678863525,5.439626216888428,9,1,1,4
1509323309056.0,1.8291701078414917,5.966350555419922,7.0772600173950195,9,1,1,4
1509323309056.0,1.9057846069335938,6.636727333068848,5.966350555419922,9,1,1,4
1509323309056.0,1.5131354331970215,5.918466567993164,7.565677165985107,9,1,1,4
1509323309056.0,1.742978811264038,6.789956092834473,5.937620162963867,9,1,1,4
1509323309056.0,2.030282974243164,6.493074893951416,7.709329605102539,9,1,1,4
1509323309056.0,1.3694833517074585,7.163451671600342,5.803544998168945,9,1,1,4
1509323309056.0,1.216254472732544,6.540958881378174,7.067683219909668,9,1,1,4
1509323309056.0,1.580173134803772,7.441178798675537,5.152322292327881,9,1,1,4
1509323309056.0,1.3886369466781616,7.038952827453613,6.464344501495361,9,1,1,4
1509323309056.0,1.4939818382263184,7.623138427734375,5.621585369110107,9,1,1,4
1509323309056.0,1.4269442558288574,6.627150535583496,7.805097579956055,9,1,1,4
1509323309056.0,1.37906014919281,7.412448406219482,5.918466567993164,9,1,1,4
1509323309056.0,1.1109095811843872,6.282385349273682,7.556100368499756,9,1,1,4
1509323309056.0,1.216254472732544,6.8378400802612305,6.138733386993408,9,1,1,4
1509323309056.0,1.580173134803772,6.943184852600098,6.282385349273682,9,1,1,4
1509323309056.0,1.436521053314209,6.617573261260986,6.531382083892822,9,1,1,4
1509323309056.0,1.2737152576446533,6.464344501495361,7.01979923248291,9,1,1,4
1509323309056.0,1.3982137441635132,6.818686485290527,6.4164605140686035,9,1,1,4
1509323309056.0,1.1971008777618408,6.866570472717285,5.928043365478516,9,1,1,4
1509323309056.0,1.522712230682373,6.818686485290527,6.282385349273682,9,1,1,4
1509323309056.0,1.7717092037200928,6.665457725524902,7.259219646453857,9,1,1,4
1509323309056.0,1.723825216293335,7.067683219909668,6.224924564361572,9,1,1,4
1509323309056.0,1.5897499322891235,6.732495307922363,7.508216381072998,9,1,1,4
1509323309056.0,1.3311761617660522,7.201758861541748,6.052541732788086,9,1,1,4
1509323309056.0,1.7046716213226318,6.818686485290527,6.8378400802612305,9,1,1,4
1509323309056.0,1.6663644313812256,7.450755596160889,5.343858242034912,9,1,1,4
1509323309056.0,1.656787633895874,7.201758861541748,6.636727333068848,9,1,1,4
1509323309056.0,1.7525556087493896,8.35097599029541,4.1180267333984375,9,1,1,4
1509323309056.0,1.742978811264038,7.402871608734131,6.540958881378174,9,1,1,4
1509323309056.0,1.5131354331970215,8.130708694458008,3.466804027557373,9,1,1,4
1509323309056.0,1.742978811264038,7.833827972412109,5.171475887298584,9,1,1,4
1509323309056.0,1.6855180263519287,7.766790390014648,5.228936672210693,9,1,1,4
1509323309056.0,1.5514427423477173,6.914454460144043,6.387730121612549,9,1,1,4
1509323309056.0,1.6089035272598267,7.718906402587891,4.778826713562012,9,1,1,4
1509323309056.0,1.436521053314209,6.847416877746582,7.4316020011901855,9,1,1,4
1509323309056.0,1.7812861204147339,8.178592681884766,4.836287498474121,9,1,1,4
1509323309056.0,1.359906554222107,7.010222434997559,7.029376029968262,9,1,1,4
1509323309056.0,1.216254472732544,7.565677165985107,4.3191399574279785,9,1,1,4
1509323309056.0,0.9864110946655273,7.1921820640563965,6.435614109039307,9,1,1,4
1509323309056.0,1.4269442558288574,7.441178798675537,6.071695327758789,9,1,1,4
1509323309056.0,1.3407529592514038,7.354987621307373,5.937620162963867,9,1,1,4
1509323309056.0,1.50355863571167,6.856993675231934,6.914454460144043,9,1,1,4
1509323309056.0,1.37906014919281,7.058106422424316,6.129156112670898,9,1,1,4
1509323309056.0,1.158793568611145,6.655880928039551,6.224924564361572,9,1,1,4
1509323309056.0,1.6280571222305298,6.971915245056152,6.521805286407471,9,1,1,4
1509323309056.0,1.436521053314209,7.086836814880371,6.665457725524902,9,1,1,4
1509323309056.0,1.4748282432556152,7.422025203704834,6.339846134185791,9,1,1,4
1509323309056.0,0.9768342971801758,7.058106422424316,6.445190906524658,9,1,1,4
1509323309056.0,1.3886369466781616,7.163451671600342,6.607996463775635,9,1,1,4
1509323309056.0,1.3311761617660522,7.048529624938965,6.311115741729736,9,1,1,4
1509323309056.0,1.359906554222107,6.809109687805176,6.358999729156494,9,1,1,4
1509323309056.0,1.742978811264038,6.847416877746582,6.512228488922119,9,1,1,4
1509323309056.0,1.7908629179000854,6.876147270202637,6.7708024978637695,9,1,1,4
1509425414144.0,3.2747955322265625,2.731781005859375,11.310806274414062,10,1,1,4
1509425414144.0,0.02984619140625,1.72064208984375,10.355514526367188,10,1,1,4
1509425414144.0,0.65313720703125,1.7318115234375,6.824066162109375,10,1,1,4
1509425414144.0,2.7360992431640625,3.8459014892578125,6.6405181884765625,10,1,1,4
1509425414144.0,2.1750640869140625,4.16192626953125,10.468048095703125,10,1,1,4
1509425414144.0,1.47674560546875,4.5872955322265625,9.49200439453125,10,1,1,4
1509425414144.0,2.3650054931640625,3.33831787109375,10.789657592773438,10,1,1,4
1509425414144.0,2.813507080078125,2.7796783447265625,9.0147705078125,10,1,1,4
1509425414144.0,1.2684478759765625,1.9105682373046875,8.381088256835938,10,1,1,4
1509425414144.0,1.6738739013671875,3.4516448974609375,7.0850372314453125,10,1,1,4
1509425414144.0,3.0840606689453125,3.807586669921875,10.131256103515625,10,1,1,4
1509425414144.0,4.6235198974609375,4.932861328125,10.8016357421875,10,1,1,4
1509425414144.0,2.527801513671875,3.7884368896484375,6.6301422119140625,10,1,1,4
1509425414144.0,3.108001708984375,2.2521514892578125,7.3076934814453125,10,1,1,4
1509425414144.0,3.8885040283203125,4.024658203125,5.91986083984375,10,1,1,4
1509425414144.0,3.036163330078125,5.118011474609375,9.76654052734375,10,1,1,4
1509425414144.0,4.629119873046875,4.873809814453125,10.44329833984375,10,1,1,4
1509425414144.0,3.149505615234375,3.677490234375,7.17681884765625,10,1,1,4
1509425414144.0,0.740936279296875,1.6615753173828125,6.5216064453125,10,1,1,4
1509425414144.0,0.08172607421875,3.0167083740234375,8.515975952148438,10,1,1,4
1509425414144.0,3.0633087158203125,3.839508056640625,9.373886108398438,10,1,1,4
1509425414144.0,2.98748779296875,2.64080810546875,11.389007568359375,10,1,1,4
1509425414144.0,1.6946258544921875,0.004791259765625,10.86627197265625,10,1,1,4
1509425414144.0,2.7408905029296875,1.683929443359375,6.4409942626953125,10,1,1,4
1509425414144.0,3.3322601318359375,2.90496826171875,7.7881317138671875,10,1,1,4
1509425414144.0,3.8813323974609375,2.9704132080078125,11.096115112304688,10,1,1,4
1509425414144.0,3.552520751953125,2.26092529296875,11.841522216796875,10,1,1,4
1509425414144.0,2.0553436279296875,1.705474853515625,8.239837646484375,10,1,1,4
1509425414144.0,2.1774444580078125,1.146026611328125,7.669219970703125,10,1,1,4
1509425414144.0,-0.610198974609375,3.4293060302734375,7.0634918212890625,10,1,1,4
1509425414144.0,0.7808380126953125,5.349456787109375,8.674789428710938,10,1,1,4
1509425414144.0,2.063323974609375,2.392608642578125,13.931655883789062,10,1,1,4
1509425414144.0,0.5166778564453125,2.1938934326171875,9.507965087890625,10,1,1,4
1509425414144.0,0.4296875,3.0669708251953125,3.916717529296875,10,1,1,4
1509425414144.0,3.455963134765625,4.26727294921875,7.659637451171875,10,1,1,4
1509425414144.0,2.25885009765625,4.03582763671875,13.244522094726562,10,1,1,4
1509425414144.0,2.3091278076171875,1.2689361572265625,10.472824096679688,10,1,1,4
1509425414144.0,0.8837890625,3.3558807373046875,6.022003173828125,10,1,1,4
1509425414144.0,0.99072265625,3.7421417236328125,6.7578277587890625,10,1,1,4
1509425414144.0,1.575714111328125,4.315948486328125,8.567840576171875,10,1,1,4
1509425414144.0,2.1710662841796875,4.420501708984375,11.515899658203125,10,1,1,4
1509425414144.0,0.9133148193359375,0.9991912841796875,13.641159057617188,10,1,1,4
1509425414144.0,-0.0786895751953125,3.9249114990234375,4.70599365234375,10,1,1,4
1509425414144.0,2.473541259765625,4.2552947998046875,6.199188232421875,10,1,1,4
1509425414144.0,3.3593902587890625,6.08447265625,8.316452026367188,10,1,1,4
1509425414144.0,2.2708282470703125,3.2457427978515625,14.64752197265625,10,1,1,4
1509425414144.0,2.45758056640625,2.6591644287109375,6.1808319091796875,10,1,1,4
1509425414144.0,3.2061614990234375,2.8706512451171875,6.7562408447265625,10,1,1,4
1509425414144.0,1.282012939453125,4.0605621337890625,7.215118408203125,10,1,1,4
1509425414144.0,3.3897247314453125,4.93206787109375,8.66680908203125,10,1,1,4
1509425414144.0,3.49505615234375,0.2960968017578125,12.338714599609375,10,1,1,4
1509425414144.0,1.323516845703125,2.549835205078125,6.62774658203125,10,1,1,4
1509425414144.0,3.561309814453125,3.6886749267578125,6.78656005859375,10,1,1,4
1509425414144.0,4.7528076171875,6.559326171875,4.7395172119140625,10,1,1,4
1509425414144.0,4.354583740234375,6.469940185546875,11.807998657226562,10,1,1,4
1509425414144.0,2.115997314453125,3.90814208984375,7.8543701171875,10,1,1,4
1509425414144.0,5.0337371826171875,4.0789337158203125,4.310150146484375,10,1,1,4
1509425414144.0,2.897308349609375,4.462799072265625,6.1640625,10,1,1,4
1509425414144.0,2.258056640625,6.099639892578125,7.82244873046875,10,1,1,4
1509425414144.0,5.339385986328125,5.0094757080078125,11.665145874023438,10,1,1,4
1509425414144.0,4.602783203125,3.1076812744140625,8.597381591796875,10,1,1,4
1509425414144.0,1.5413970947265625,4.3558502197265625,5.102630615234375,10,1,1,4
1509425414144.0,3.8502044677734375,6.016632080078125,4.9829254150390625,10,1,1,4
1509425414144.0,6.33697509765625,6.6846160888671875,7.3484039306640625,10,1,1,4
1509425414144.0,5.526947021484375,4.3079681396484375,11.484786987304688,10,1,1,4
1509425414144.0,4.617950439453125,2.7557373046875,6.9892730712890625,10,1,1,4
1509425414144.0,2.907684326171875,3.141998291015625,5.6277618408203125,10,1,1,4
1509425414144.0,1.819122314453125,4.511474609375,6.020416259765625,10,1,1,4
1509425414144.0,3.49267578125,6.481903076171875,6.1864166259765625,10,1,1,4
1509425414144.0,4.683380126953125,2.3447265625,12.56536865234375,10,1,1,4
1509425414144.0,-1.8759307861328125,2.6535797119140625,9.310043334960938,10,1,1,4
1509425414144.0,1.1678924560546875,2.8283538818359375,5.5998382568359375,10,1,1,4
1509425414144.0,3.37615966796875,4.6703033447265625,6.4713134765625,10,1,1,4
1509425414144.0,1.2987823486328125,5.002288818359375,13.754486083984375,10,1,1,4
1509425414144.0,1.9635772705078125,0.7988739013671875,13.375396728515625,10,1,1,4
1509425414144.0,-0.0794830322265625,3.4308929443359375,4.6142120361328125,10,1,1,4
1509425414144.0,1.8949432373046875,4.008697509765625,5.8847503662109375,10,1,1,4
1509425414144.0,0.9779510498046875,3.9576263427734375,8.936553955078125,10,1,1,4
1509425414144.0,3.1949920654296875,4.5322265625,9.235031127929688,10,1,1,4
1509425414144.0,2.581268310546875,-0.099761962890625,12.341903686523438,10,1,1,4
1509425414144.0,0.7233734130859375,1.28887939453125,6.9908599853515625,10,1,1,4
1509425414144.0,3.1678466796875,3.415740966796875,5.3691864013671875,10,1,1,4
1509425414144.0,2.1591033935546875,4.125213623046875,11.755325317382812,10,1,1,4
1509425414144.0,1.17108154296875,1.6863250732421875,14.59405517578125,10,1,1,4
1509425414144.0,1.9109039306640625,0.955291748046875,7.6732025146484375,10,1,1,4
1509425414144.0,1.9388275146484375,0.46368408203125,6.697174072265625,10,1,1,4
1509425414144.0,0.2900238037109375,2.2258148193359375,7.90704345703125,10,1,1,4
1509425414144.0,1.85662841796875,3.392578125,9.90460205078125,10,1,1,4
1509425414144.0,2.6570892333984375,0.2490081787109375,14.550949096679688,10,1,1,4
1509425414144.0,1.7792205810546875,-1.0502471923828125,9.373886108398438,10,1,1,4
1509425414144.0,0.0314483642578125,2.0247039794921875,5.6700592041015625,10,1,1,4
1509425414144.0,2.1862335205078125,3.3375244140625,7.472900390625,10,1,1,4
1509425414144.0,5.4559173583984375,2.0518341064453125,11.5733642578125,10,1,1,4
1509425414144.0,3.3474273681640625,0.1484527587890625,13.260482788085938,10,1,1,4
1509425414144.0,1.61322021484375,1.9305267333984375,7.7929229736328125,10,1,1,4
1509425414144.0,1.3634185791015625,1.59454345703125,7.0802459716796875,10,1,1,4
1509425414144.0,1.07611083984375,3.5091094970703125,5.8240814208984375,10,1,1,4
1509425414144.0,3.4431915283203125,4.4276885986328125,8.734649658203125,10,1,1,4
1509425414144.0,3.33624267578125,-1.7892608642578125,17.191757202148438,10,1,1,4
1509425414144.0,-0.2542572021484375,1.24578857421875,6.8520050048828125,10,1,1,4
1509425414144.0,2.60760498046875,2.001556396484375,5.22235107421875,10,1,1,4
1509425414144.0,5.0129852294921875,3.9328765869140625,7.986053466796875,10,1,1,4
1509425414144.0,3.542938232421875,2.5905303955078125,14.00189208984375,10,1,1,4
1509425414144.0,2.5309906005859375,-0.7102813720703125,10.701873779296875,10,1,1,4
1509425414144.0,1.84625244140625,1.082977294921875,6.0299835205078125,10,1,1,4
1509425414144.0,1.2660675048828125,2.2832794189453125,5.7953643798828125,10,1,1,4
1509425414144.0,2.183837890625,3.426910400390625,9.874282836914062,10,1,1,4
1509425414144.0,3.5110321044921875,2.6392059326171875,12.942840576171875,10,1,1,4
1509425414144.0,3.050537109375,-1.5673980712890625,12.614044189453125,10,1,1,4
1509425414144.0,1.0426025390625,2.412567138671875,5.028411865234375,10,1,1,4
1509425414144.0,3.80950927734375,3.4117431640625,6.1289520263671875,10,1,1,4
1509425414144.0,4.7184906005859375,5.2616729736328125,8.101776123046875,10,1,1,4
1509425414144.0,4.9555206298828125,2.1372222900390625,12.615646362304688,10,1,1,4
1509425414144.0,4.18060302734375,1.663970947265625,7.057098388671875,10,1,1,4
1509425414144.0,3.318695068359375,-0.207489013671875,8.07623291015625,10,1,1,4
1509425414144.0,-0.1161956787109375,2.1515960693359375,8.055496215820312,10,1,1,4
1509425414144.0,2.4974822998046875,3.4572296142578125,9.82958984375,10,1,1,4
1509425414144.0,2.6602935791015625,3.6567535400390625,12.626815795898438,10,1,1,4
1509425414144.0,-0.379547119140625,2.075775146484375,7.49444580078125,10,1,1,4
1509425414144.0,1.799163818359375,1.3966217041015625,7.0203857421875,10,1,1,4
1509425414144.0,2.5286102294921875,4.262481689453125,7.3795166015625,10,1,1,4
1509425414144.0,5.7775421142578125,5.266448974609375,12.147964477539062,10,1,1,4
1509425414144.0,1.5046844482421875,3.659942626953125,11.041046142578125,10,1,1,4
1509425414144.0,1.025848388671875,2.445281982421875,7.5646820068359375,10,1,1,4
1509425414144.0,-0.24468994140625,2.9560394287109375,6.960540771484375,10,1,1,4
1509425414144.0,-0.2071685791015625,4.1012725830078125,7.31329345703125,10,1,1,4
1509425414144.0,2.9906768798828125,4.51226806640625,11.190292358398438,10,1,1,4
1509425414144.0,2.6930084228515625,1.410186767578125,12.790420532226562,10,1,1,4
1509425414144.0,2.0784912109375,2.8834228515625,7.7099151611328125,10,1,1,4
1509425414144.0,2.87176513671875,5.256866455078125,3.774658203125,10,1,1,4
1509425414144.0,4.8709259033203125,6.25286865234375,7.7490234375,10,1,1,4
1509425414144.0,1.507080078125,4.5920867919921875,13.730545043945312,10,1,1,4
1509425414144.0,3.14630126953125,2.7014617919921875,6.9733123779296875,10,1,1,4
1509425414144.0,2.1391448974609375,2.285675048828125,5.9613494873046875,10,1,1,4
1509425414144.0,-0.45855712890625,4.145172119140625,7.2167205810546875,10,1,1,4
1509425414144.0,1.931640625,5.10205078125,10.089752197265625,10,1,1,4
1509425414144.0,2.178253173828125,1.9991607666015625,12.468002319335938,10,1,1,4
1509425414144.0,-1.350006103515625,1.9632568359375,8.48883056640625,10,1,1,4
1509425414144.0,1.7967681884765625,1.980010986328125,6.9621429443359375,10,1,1,4
1509425414144.0,2.95556640625,4.410125732421875,6.7945404052734375,10,1,1,4
1509425414144.0,2.7624359130859375,3.55938720703125,13.22216796875,10,1,1,4
1509425414144.0,1.3817901611328125,-0.3854522705078125,13.8973388671875,10,1,1,4
1509425414144.0,1.7816162109375,2.2250213623046875,6.951751708984375,10,1,1,4
1509425414144.0,1.7113800048828125,2.9496612548828125,6.05792236328125,10,1,1,4
1509425414144.0,1.3314971923828125,4.7413177490234375,6.5630950927734375,10,1,1,4
1509425414144.0,2.4567718505859375,6.220947265625,10.4632568359375,10,1,1,4
1509425414144.0,1.2572784423828125,0.881072998046875,12.434478759765625,10,1,1,4
1509425414144.0,-0.0268096923828125,2.8538970947265625,6.697967529296875,10,1,1,4
1509425414144.0,2.126373291015625,3.944854736328125,7.4609222412109375,10,1,1,4
1509425414144.0,2.84942626953125,4.1443634033203125,10.510345458984375,10,1,1,4
1509425414144.0,1.9819183349609375,2.9991455078125,11.074569702148438,10,1,1,4
1509425414144.0,2.8206939697265625,1.8993988037109375,8.702728271484375,10,1,1,4
1509425414144.0,1.924468994140625,1.5650177001953125,7.9884490966796875,10,1,1,4
1509425414144.0,1.250091552734375,3.5146942138671875,6.27020263671875,10,1,1,4
1509425414144.0,0.511077880859375,4.77642822265625,9.013961791992188,10,1,1,4
1509425414144.0,2.79754638671875,2.8275604248046875,12.413726806640625,10,1,1,4
1509425414144.0,1.5709228515625,-0.017547607421875,11.570175170898438,10,1,1,4
1509425414144.0,1.1335906982421875,1.5091552734375,6.665252685546875,10,1,1,4
1509425414144.0,2.401702880859375,3.437286376953125,5.77142333984375,10,1,1,4
1509425414144.0,4.1087799072265625,3.797210693359375,11.272491455078125,10,1,1,4
1509425414144.0,4.903656005859375,3.083740234375,12.7249755859375,10,1,1,4
1509425414144.0,3.18701171875,1.410186767578125,9.08978271484375,10,1,1,4
1509425414144.0,1.5310211181640625,1.40380859375,6.135345458984375,10,1,1,4
1509425414144.0,0.16473388671875,3.2633056640625,6.579864501953125,10,1,1,4
1509425414144.0,1.1838531494140625,3.59210205078125,10.94049072265625,10,1,1,4
1509425414144.0,1.560546875,2.0374755859375,13.598861694335938,10,1,1,4
1509425414144.0,-0.060333251953125,0.754974365234375,9.527923583984375,10,1,1,4
1509425414144.0,0.5685577392578125,2.0478363037109375,5.8153076171875,10,1,1,4
1509425414144.0,2.146331787109375,3.8570709228515625,5.7801971435546875,10,1,1,4
1509425414144.0,4.5205841064453125,3.7732696533203125,12.31396484375,10,1,1,4
1509425414144.0,3.900482177734375,0.586578369140625,14.030609130859375,10,1,1,4
1509425414144.0,1.9707489013671875,1.557830810546875,7.5750579833984375,10,1,1,4
1509425414144.0,0.2533111572265625,2.107696533203125,5.7801971435546875,10,1,1,4
1509425414144.0,0.6906585693359375,3.185089111328125,8.875106811523438,10,1,1,4
1509425414144.0,2.073699951171875,4.7301483154296875,8.165618896484375,10,1,1,4
1509425414144.0,4.523773193359375,0.09259033203125,14.641937255859375,10,1,1,4
1509425414144.0,0.0737457275390625,1.833160400390625,8.622116088867188,10,1,1,4
1509425414144.0,1.9220733642578125,2.9959564208984375,5.1361541748046875,10,1,1,4
1509425414144.0,4.7911224365234375,3.9855499267578125,8.67718505859375,10,1,1,4
1509425414144.0,2.2963714599609375,2.910552978515625,14.623580932617188,10,1,1,4
1509425414144.0,2.654693603515625,1.7972564697265625,8.01080322265625,10,1,1,4
1509425414144.0,2.6818389892578125,1.41497802734375,6.412261962890625,10,1,1,4
1509425414144.0,1.4017333984375,2.7740936279296875,8.168014526367188,10,1,1,4
1509425414144.0,2.8502197265625,3.9959259033203125,9.875076293945312,10,1,1,4
1509425414144.0,2.5884552001953125,2.8762359619140625,11.363479614257812,10,1,1,4
1509425414144.0,0.41851806640625,1.0694122314453125,9.309249877929688,10,1,1,4
1509425414144.0,0.8135528564453125,2.4891815185546875,7.17919921875,10,1,1,4
1509425414144.0,1.14874267578125,4.4819488525390625,8.7418212890625,10,1,1,4
1509425414144.0,2.187835693359375,3.6016845703125,10.527099609375,10,1,1,4
1509425414144.0,0.8885650634765625,1.250579833984375,12.447250366210938,10,1,1,4
1509425414144.0,0.7712554931640625,1.7190399169921875,8.564651489257812,10,1,1,4
1509425414144.0,0.7042236328125,2.444488525390625,5.884735107421875,10,1,1,4
1509425414144.0,1.0545654296875,4.018280029296875,8.141677856445312,10,1,1,4
1509425414144.0,1.9915008544921875,2.7270050048828125,11.440887451171875,10,1,1,4
1509425414144.0,0.62042236328125,-0.6216888427734375,12.097702026367188,10,1,1,4
1509425414144.0,0.1431732177734375,0.24102783203125,8.539108276367188,10,1,1,4
1509425414144.0,1.5796966552734375,2.0837554931640625,6.73309326171875,10,1,1,4
1509425414144.0,2.073699951171875,2.434112548828125,10.65399169921875,10,1,1,4
1509425414144.0,1.459197998046875,2.699066162109375,11.6148681640625,10,1,1,4
1509425414144.0,2.359405517578125,1.2370147705078125,9.582977294921875,10,1,1,4
1509425414144.0,1.2133941650390625,1.8028411865234375,8.094589233398438,10,1,1,4
1509425414144.0,1.291595458984375,2.83154296875,7.50482177734375,10,1,1,4
1509425414144.0,1.0888824462890625,2.5123138427734375,9.585372924804688,10,1,1,4
1509425414144.0,2.2500762939453125,2.1029052734375,11.021102905273438,10,1,1,4
1509425414144.0,2.167083740234375,2.021514892578125,10.879837036132812,10,1,1,4
1509425414144.0,0.140777587890625,2.168365478515625,7.34521484375,10,1,1,4
1509425414144.0,1.863006591796875,3.766082763671875,7.235870361328125,10,1,1,4
1509425414144.0,1.7728271484375,4.727752685546875,8.502410888671875,10,1,1,4
1509425414144.0,0.5645599365234375,4.6974334716796875,11.566986083984375,10,1,1,4
1509425414144.0,3.05133056640625,3.290435791015625,8.283721923828125,10,1,1,4
1509425414144.0,1.6052398681640625,2.059814453125,8.04351806640625,10,1,1,4
1509425414144.0,1.4360504150390625,2.7796783447265625,7.5120086669921875,10,1,1,4
1509425414144.0,1.6738739013671875,3.6256256103515625,9.2374267578125,10,1,1,4
1509425414144.0,2.4128875732421875,2.6847076416015625,10.582962036132812,10,1,1,4
1509425414144.0,1.7959747314453125,-0.6855316162109375,14.197418212890625,10,1,1,4
1509425414144.0,0.7018280029296875,1.6336517333984375,7.836029052734375,10,1,1,4
1509425414144.0,1.4679718017578125,3.6990509033203125,6.3723602294921875,10,1,1,4
1509425414144.0,2.7305145263671875,4.78521728515625,7.8025054931640625,10,1,1,4
1509425414144.0,1.67706298828125,2.4883880615234375,14.080093383789062,10,1,1,4
1509425414144.0,2.127166748046875,0.970458984375,10.089752197265625,10,1,1,4
1509425414144.0,1.36822509765625,1.272918701171875,6.833648681640625,10,1,1,4
1509425414144.0,0.182281494140625,3.0909271240234375,5.7642364501953125,10,1,1,4
1509425414144.0,1.090484619140625,4.0262451171875,9.251785278320312,10,1,1,4
1509425414144.0,2.062530517578125,1.9409027099609375,13.033828735351562,10,1,1,4
1509425414144.0,-0.28857421875,0.7884979248046875,9.978836059570312,10,1,1,4
1509425414144.0,0.499114990234375,1.638427734375,7.931793212890625,10,1,1,4
1509425414144.0,1.0721282958984375,4.1643218994140625,6.48089599609375,10,1,1,4
1509425414144.0,2.90130615234375,3.3343353271484375,11.950851440429688,10,1,1,4
1509425414144.0,1.4320526123046875,1.79486083984375,12.8199462890625,10,1,1,4
1509425414144.0,0.6268157958984375,2.6631622314453125,7.417022705078125,10,1,1,4
1509425414144.0,1.282012939453125,2.6815185546875,5.619781494140625,10,1,1,4
1509425414144.0,0.5166778564453125,2.9759979248046875,9.4808349609375,10,1,1,4
1509425414144.0,1.382568359375,3.82275390625,10.791259765625,10,1,1,4
1509425414144.0,1.0976715087890625,1.4955902099609375,12.063385009765625,10,1,1,4
1509425414144.0,-1.140106201171875,2.1731414794921875,8.672393798828125,10,1,1,4
1509425414144.0,1.0928802490234375,3.3622589111328125,5.4745330810546875,10,1,1,4
1509425414144.0,3.371368408203125,3.6759033203125,9.11053466796875,10,1,1,4
1509425414144.0,1.6866455078125,4.0286407470703125,11.976394653320312,10,1,1,4
1509425414144.0,2.1279754638671875,1.8978118896484375,9.916580200195312,10,1,1,4
1509425414144.0,1.566131591796875,2.1563873291015625,7.4856719970703125,10,1,1,4
1509425414144.0,0.9133148193359375,2.8969879150390625,6.8272552490234375,10,1,1,4
1509425414144.0,1.3889617919921875,3.267303466796875,9.831985473632812,10,1,1,4
1509425414144.0,1.0457916259765625,3.6431884765625,11.304412841796875,10,1,1,4
1509425414144.0,0.4959259033203125,1.22503662109375,11.305206298828125,10,1,1,4
1509425414144.0,-0.4753265380859375,2.8083953857421875,6.887115478515625,10,1,1,4
1509425414144.0,1.767242431640625,4.0916900634765625,5.508056640625,10,1,1,4
1509425414144.0,3.46392822265625,3.702239990234375,11.600509643554688,10,1,1,4
1509425414144.0,0.8933563232421875,4.177093505859375,11.969207763671875,10,1,1,4
1509425414144.0,1.2101898193359375,2.50274658203125,9.180755615234375,10,1,1,4
1509425414144.0,1.2860107421875,2.03826904296875,6.1935882568359375,10,1,1,4
1509425414144.0,0.6164398193359375,2.968017578125,7.45135498046875,10,1,1,4
1509425414144.0,1.4344482421875,4.44683837890625,9.484024047851562,10,1,1,4
1509425414144.0,0.794403076171875,2.4085693359375,12.637191772460938,10,1,1,4
1509425414144.0,-1.3747406005859375,1.7334136962890625,8.86871337890625,10,1,1,4
1509425414144.0,1.3897552490234375,2.5051422119140625,6.633331298828125,10,1,1,4
1509425414144.0,1.7465057373046875,4.0055084228515625,7.1017913818359375,10,1,1,4
1509425414144.0,1.7321319580078125,4.0142822265625,13.242919921875,10,1,1,4
1509425414144.0,2.0593414306640625,1.3287811279296875,12.686676025390625,10,1,1,4
1509425414144.0,1.6842498779296875,1.8355560302734375,7.1919708251953125,10,1,1,4
1509425414144.0,1.5908660888671875,3.14837646484375,6.358001708984375,10,1,1,4
1509425414144.0,1.0346221923828125,3.849090576171875,9.5877685546875,10,1,1,4
1509425414144.0,0.8861846923828125,5.065338134765625,10.088165283203125,10,1,1,4
1509425414144.0,-0.197601318359375,2.867462158203125,10.736190795898438,10,1,1,4
1509425414144.0,-0.7506561279296875,3.8626556396484375,8.3292236328125,10,1,1,4
1509425414144.0,0.867828369140625,4.3327178955078125,6.590240478515625,10,1,1,4
1509425414144.0,1.58209228515625,3.9727783203125,9.548660278320312,10,1,1,4
1509425414144.0,0.6754913330078125,4.051788330078125,10.83355712890625,10,1,1,4
1509425414144.0,2.9324188232421875,0.5626373291015625,10.203079223632812,10,1,1,4
1509425414144.0,1.9069061279296875,1.2210540771484375,7.964508056640625,10,1,1,4
1509425414144.0,1.2149810791015625,2.8810272216796875,8.132904052734375,10,1,1,4
1509425414144.0,1.81512451171875,4.7612762451171875,7.5550994873046875,10,1,1,4
1509425414144.0,3.520599365234375,4.895355224609375,8.8367919921875,10,1,1,4
1509425414144.0,2.8294677734375,0.7573699951171875,11.392196655273438,10,1,1,4
1509425414144.0,1.88775634765625,1.3471527099609375,8.279739379882812,10,1,1,4
1509425414144.0,1.829498291015625,4.02545166015625,6.5455474853515625,10,1,1,4
1509425414144.0,3.2604217529296875,5.1212005615234375,9.08819580078125,10,1,1,4
1509425414144.0,2.8669891357421875,3.3247528076171875,11.380233764648438,10,1,1,4
1509425414144.0,4.3050994873046875,2.212249755859375,8.49761962890625,10,1,1,4
1509425414144.0,2.70098876953125,1.8658905029296875,8.94293212890625,10,1,1,4
1509425414144.0,1.0497894287109375,3.6719207763671875,5.77142333984375,10,1,1,4
1509425414144.0,2.8358612060546875,3.956817626953125,8.76336669921875,10,1,1,4
1509425414144.0,3.1207733154296875,3.8003997802734375,11.333145141601562,10,1,1,4
1509425414144.0,1.9172821044921875,1.071807861328125,10.489593505859375,10,1,1,4
1509425414144.0,1.4520111083984375,3.205047607421875,7.1121673583984375,10,1,1,4
1509425414144.0,2.686614990234375,5.07012939453125,5.9501800537109375,10,1,1,4
1509425414144.0,3.55731201171875,5.2888031005859375,9.64923095703125,10,1,1,4
1509425414144.0,2.8462371826171875,3.9743804931640625,12.240554809570312,10,1,1,4
1509425414144.0,2.2069854736328125,2.6312408447265625,8.515167236328125,10,1,1,4
1509425414144.0,1.3905487060546875,3.1499786376953125,5.5120391845703125,10,1,1,4
1509425414144.0,1.2716522216796875,3.544219970703125,7.5782470703125,10,1,1,4
1509425414144.0,2.7017822265625,5.1004486083984375,9.299667358398438,10,1,1,4
1509425414144.0,2.3035430908203125,3.2545166015625,12.347488403320312,10,1,1,4
1509425414144.0,-1.1369171142578125,2.08935546875,8.914215087890625,10,1,1,4
1509425414144.0,1.3107452392578125,3.955230712890625,5.1784515380859375,10,1,1,4
1509425414144.0,2.380157470703125,5.7971649169921875,6.1417236328125,10,1,1,4
1509425414144.0,2.1024322509765625,5.21856689453125,12.495132446289062,10,1,1,4
1509425414144.0,2.451995849609375,2.9249267578125,10.001968383789062,10,1,1,4
1509425414144.0,-0.11859130859375,3.9967193603515625,6.982086181640625,10,1,1,4
1509425414144.0,0.6802825927734375,4.9089202880859375,6.359588623046875,10,1,1,4
1509425414144.0,1.0354156494140625,3.59210205078125,8.902236938476562,10,1,1,4
1509425414144.0,1.333892822265625,4.2177886962890625,10.567001342773438,10,1,1,4
1509425414144.0,0.8454742431640625,0.510772705078125,12.013900756835938,10,1,1,4
1509425414144.0,0.584503173828125,2.117279052734375,7.87432861328125,10,1,1,4
1509425414144.0,2.8885345458984375,4.4069366455078125,5.43304443359375,10,1,1,4
1509425414144.0,5.1255035400390625,4.07733154296875,8.970062255859375,10,1,1,4
1509425414144.0,1.2524871826171875,3.1148529052734375,14.464767456054688,10,1,1,4
1509425414144.0,2.602813720703125,2.2729034423828125,7.8791046142578125,10,1,1,4
1509425414144.0,1.776824951171875,2.624847412109375,6.79693603515625,10,1,1,4
1509425414144.0,0.6874542236328125,3.9416656494140625,6.950164794921875,10,1,1,4
1509425414144.0,2.6810302734375,4.1627197265625,9.631668090820312,10,1,1,4
1509425414144.0,3.2277069091796875,2.39739990234375,11.201461791992188,10,1,1,4
1509425414144.0,1.29638671875,1.1651763916015625,9.990005493164062,10,1,1,4
1509425414144.0,2.516632080078125,1.795654296875,6.0882415771484375,10,1,1,4
1509425414144.0,4.338623046875,3.7365570068359375,7.689178466796875,10,1,1,4
1509425414144.0,1.333892822265625,3.8243408203125,12.400955200195312,10,1,1,4
1509425414144.0,2.27880859375,0.42218017578125,11.887008666992188,10,1,1,4
1509425414144.0,3.1686553955078125,2.467620849609375,5.1098175048828125,10,1,1,4
1509425414144.0,1.1918487548828125,1.905792236328125,9.83038330078125,10,1,1,4
1509425414144.0,-0.155303955078125,3.0238800048828125,8.768951416015625,10,1,1,4
1509425414144.0,3.531768798828125,3.6312103271484375,8.555084228515625,10,1,1,4
1509425414144.0,3.7073516845703125,0.997589111328125,12.822341918945312,10,1,1,4
1509425414144.0,-0.7602386474609375,1.8818511962890625,7.7450408935546875,10,1,1,4
1509425414144.0,3.065704345703125,4.284027099609375,5.0850830078125,10,1,1,4
1509425414144.0,5.6729888916015625,4.8370819091796875,9.943710327148438,10,1,1,4
1509425414144.0,0.858245849609375,3.9400634765625,14.06573486328125,10,1,1,4
1509425414144.0,1.5094757080078125,1.9137725830078125,8.262176513671875,10,1,1,4
1509425414144.0,1.6363677978515625,2.629638671875,6.606201171875,10,1,1,4
1509425414144.0,0.2804412841796875,3.6455841064453125,7.8288421630859375,10,1,1,4
1509425414144.0,2.4256439208984375,3.225799560546875,10.072998046875,10,1,1,4
1509425414144.0,3.5078277587890625,2.0414581298828125,11.370651245117188,10,1,1,4
1509425414144.0,0.5589752197265625,2.213043212890625,7.89666748046875,10,1,1,4
1509425414144.0,1.523834228515625,3.199462890625,8.17120361328125,10,1,1,4
1509425414144.0,1.4480133056640625,4.0541839599609375,9.410598754882812,10,1,1,4
1509425414144.0,0.98992919921875,4.0278472900390625,11.202255249023438,10,1,1,4
1509425414144.0,1.7417144775390625,2.782867431640625,9.93414306640625,10,1,1,4
1509425414144.0,0.5126800537109375,3.110870361328125,7.764984130859375,10,1,1,4
1509425414144.0,1.22216796875,3.5035247802734375,6.60699462890625,10,1,1,4
1509425414144.0,0.9284820556640625,2.9640350341796875,9.473648071289062,10,1,1,4
1509425414144.0,1.7704315185546875,3.0590057373046875,11.079360961914062,10,1,1,4
1509425414144.0,0.4161224365234375,0.5450897216796875,11.748947143554688,10,1,1,4
1509425414144.0,0.5118865966796875,1.7134552001953125,8.04351806640625,10,1,1,4
1509425414144.0,2.9970703125,4.1228179931640625,7.3771209716796875,10,1,1,4
1509425414144.0,3.097625732421875,3.1284332275390625,9.853530883789062,10,1,1,4
1509425414144.0,1.0242462158203125,2.8626708984375,11.028289794921875,10,1,1,4
1509425414144.0,3.0625,1.8267822265625,8.661209106445312,10,1,1,4
1509425414144.0,2.3753662109375,1.948089599609375,8.267776489257812,10,1,1,4
1509425414144.0,1.6411590576171875,2.8754425048828125,8.124114990234375,10,1,1,4
1509145575424.0,-0.6607996821403503,2.7102363109588623,9.366117477416992,11,1,0,3
1509145575424.0,-0.545877993106842,2.7772738933563232,9.375694274902344,11,1,0,3
1509145575424.0,-0.2777273952960968,2.873042106628418,9.260771751403809,11,1,0,3
1509145575424.0,-0.2585737705230713,2.8155810832977295,9.404424667358398,11,1,0,3
1509145575424.0,0.047884032130241394,2.691082715988159,9.184157371520996,11,1,0,3
1509145575424.0,-0.047884032130241394,2.9496564865112305,9.2033109664917,11,1,0,3
1509145575424.0,-0.047884032130241394,2.9305028915405273,9.490615844726562,11,1,0,3
1509145575424.0,-0.14365209639072418,3.00711727142334,9.14585018157959,11,1,0,3
1509145575424.0,0.0,2.9305028915405273,9.174580574035645,11,1,0,3
1509145575424.0,-0.009576806798577309,2.9688100814819336,9.165003776550293,11,1,0,3
1509145575424.0,-0.07661445438861847,3.045424461364746,8.992621421813965,11,1,0,3
1509145575424.0,-0.20111294090747833,3.045424461364746,9.318233489990234,11,1,0,3
1509145575424.0,-0.4692635238170624,3.0358476638793945,9.35654067993164,11,1,0,3
1509145575424.0,-0.6033388376235962,3.0166940689086914,9.165003776550293,11,1,0,3
1509145575424.0,-0.26815059781074524,2.9305028915405273,9.184157371520996,11,1,0,3
1509145575424.0,-0.2585737705230713,3.0358476638793945,9.002198219299316,11,1,0,3
1509145575424.0,-0.33518823981285095,3.045424461364746,9.27034854888916,11,1,0,3
1509145575424.0,-0.181959331035614,3.026270866394043,9.41400146484375,11,1,0,3
1509145575424.0,-0.24899697303771973,3.0166940689086914,9.279925346374512,11,1,0,3
1509145575424.0,-0.12449848651885986,2.978386878967285,9.030928611755371,11,1,0,3
1509145575424.0,-0.12449848651885986,2.9975404739379883,9.136273384094238,11,1,0,3
1509145575424.0,-0.10534487664699554,2.978386878967285,9.107542991638184,11,1,0,3
1509145575424.0,-0.06703764945268631,2.978386878967285,9.299078941345215,11,1,0,3
1509145575424.0,-0.23942017555236816,3.093308687210083,9.222464561462402,11,1,0,3
1509145575424.0,-0.07661445438861847,3.064578056335449,9.08838939666748,11,1,0,3
1509145575424.0,-0.028730420395731926,3.0166940689086914,9.337387084960938,11,1,0,3
1509145575424.0,-0.08619125932455063,3.026270866394043,9.059659004211426,11,1,0,3
1509145575424.0,-0.08619125932455063,2.9975404739379883,8.96389102935791,11,1,0,3
1509145575424.0,-0.06703764945268631,3.045424461364746,9.327810287475586,11,1,0,3
1509145575424.0,-0.15322890877723694,3.0837318897247314,9.404424667358398,11,1,0,3
1509145575424.0,-0.05746084079146385,3.07415509223938,9.155426979064941,11,1,0,3
1509145575424.0,-0.12449848651885986,3.093308687210083,8.868123054504395,11,1,0,3
1509145575424.0,-0.14365209639072418,3.0550012588500977,8.935160636901855,11,1,0,3
1509145575424.0,-0.07661445438861847,3.1699230670928955,9.222464561462402,11,1,0,3
1509145575424.0,-0.1149216815829277,3.1220390796661377,9.500192642211914,11,1,0,3
1509145575424.0,-0.08619125932455063,3.0550012588500977,9.069235801696777,11,1,0,3
1509145575424.0,-0.047884032130241394,2.9879636764526367,9.193734169006348,11,1,0,3
1509145575424.0,-0.047884032130241394,2.9688100814819336,9.097966194152832,11,1,0,3
1509145575424.0,-0.028730420395731926,3.00711727142334,9.27034854888916,11,1,0,3
1509145575424.0,-0.05746084079146385,3.0837318897247314,9.41400146484375,11,1,0,3
1509145575424.0,-0.07661445438861847,3.141192674636841,9.251194953918457,11,1,0,3
1509145575424.0,-0.12449848651885986,3.141192674636841,9.308655738830566,11,1,0,3
1509145575424.0,-0.019153613597154617,2.9496564865112305,9.346963882446289,11,1,0,3
1509145575424.0,0.05746084079146385,2.7676970958709717,9.2033109664917,11,1,0,3
1509145575424.0,-0.07661445438861847,2.940079689025879,9.260771751403809,11,1,0,3
1509145575424.0,-0.1628057211637497,3.064578056335449,9.433155059814453,11,1,0,3
1509145575424.0,-0.13407529890537262,3.0837318897247314,9.66299819946289,11,1,0,3
1509145575424.0,0.05746084079146385,2.853888511657715,9.165003776550293,11,1,0,3
1509145575424.0,-0.13407529890537262,2.853888511657715,9.107542991638184,11,1,0,3
1509145575424.0,-0.10534487664699554,3.026270866394043,9.117119789123535,11,1,0,3
1509145575424.0,-0.09576806426048279,3.141192674636841,9.528923034667969,11,1,0,3
1509145575424.0,-0.1628057211637497,3.1028854846954346,9.586383819580078,11,1,0,3
1509145575424.0,-0.2106897532939911,3.0550012588500977,9.040505409240723,11,1,0,3
1509145575424.0,-0.15322890877723694,2.9879636764526367,8.877699851989746,11,1,0,3
1509145575424.0,-0.181959331035614,3.0166940689086914,9.2033109664917,11,1,0,3
1509145575424.0,-0.19153612852096558,3.026270866394043,9.672574996948242,11,1,0,3
1509145575424.0,-0.17238251864910126,3.1220390796661377,9.346963882446289,11,1,0,3
1509145575424.0,-0.09576806426048279,3.07415509223938,9.251194953918457,11,1,0,3
1509145575424.0,-0.181959331035614,3.07415509223938,8.992621421813965,11,1,0,3
1509145575424.0,-0.12449848651885986,2.8826189041137695,8.26478385925293,11,1,0,3
1509145575424.0,0.07661445438861847,1.015141487121582,10.802638053894043,11,1,0,3
1509145575424.0,0.06703764945268631,0.7469909191131592,10.256759643554688,11,1,0,3
1509145575424.0,-0.10534487664699554,0.9385270476341248,9.682151794433594,11,1,0,3
1509145575424.0,0.07661445438861847,0.9097966551780701,9.643844604492188,11,1,0,3
1509145575424.0,0.0,1.0534487962722778,9.682151794433594,11,1,0,3
1509145575424.0,-0.028730420395731926,1.235408067703247,9.710882186889648,11,1,0,3
1509145575424.0,0.028730420395731926,1.216254472732544,10.036493301391602,11,1,0,3
1509145575424.0,0.10534487664699554,1.1779472827911377,9.749189376831055,11,1,0,3
1509145575424.0,0.14365209639072418,1.0247182846069336,9.84495735168457,11,1,0,3
1509145575424.0,0.047884032130241394,1.1109095811843872,9.461885452270508,11,1,0,3
1509145575424.0,-0.047884032130241394,1.2832920551300049,9.346963882446289,11,1,0,3
1509145575424.0,-0.009576806798577309,1.1971008777618408,9.988609313964844,11,1,0,3
1509145575424.0,-0.12449848651885986,1.3311761617660522,9.921571731567383,11,1,0,3
1509145575424.0,0.0,1.235408067703247,9.739612579345703,11,1,0,3
1509145575424.0,0.009576806798577309,1.2258312702178955,9.461885452270508,11,1,0,3
1509145575424.0,-0.019153613597154617,1.3503297567367554,9.442731857299805,11,1,0,3
1509145575424.0,-0.1628057211637497,1.3215993642807007,9.883264541625977,11,1,0,3
1509145575424.0,-0.28730419278144836,1.3886369466781616,9.66299819946289,11,1,0,3
1509145575424.0,-0.07661445438861847,1.2737152576446533,9.490615844726562,11,1,0,3
1509145575424.0,-0.1628057211637497,1.3215993642807007,9.672574996948242,11,1,0,3
1509145575424.0,-0.05746084079146385,1.1683704853057861,9.854534149169922,11,1,0,3
1509145575424.0,-0.09576806426048279,1.235408067703247,9.749189376831055,11,1,0,3
1509145575424.0,-0.14365209639072418,1.2832920551300049,9.710882186889648,11,1,0,3
1509145575424.0,-0.047884032130241394,1.2832920551300049,9.375694274902344,11,1,0,3
1509145575424.0,-0.1628057211637497,1.359906554222107,9.835380554199219,11,1,0,3
1509145575424.0,-0.038307227194309235,1.2258312702178955,9.988609313964844,11,1,0,3
1509145575424.0,-0.038307227194309235,1.2449848651885986,9.66299819946289,11,1,0,3
1509145575424.0,-0.08619125932455063,1.1875240802764893,9.710882186889648,11,1,0,3
1509145575424.0,-0.17238251864910126,1.2545616626739502,9.672574996948242,11,1,0,3
1509145575424.0,0.028730420395731926,1.2258312702178955,9.452308654785156,11,1,0,3
1509145575424.0,-0.2106897532939911,1.2832920551300049,10.065223693847656,11,1,0,3
1509145575424.0,-0.1628057211637497,1.4173674583435059,9.797073364257812,11,1,0,3
1509145575424.0,0.009576806798577309,1.4077905416488647,9.797073364257812,11,1,0,3
1509145575424.0,-0.09576806426048279,1.3311761617660522,9.66299819946289,11,1,0,3
1509145575424.0,-0.24899697303771973,1.3120225667953491,9.394847869873047,11,1,0,3
1509145575424.0,-0.17238251864910126,1.1492167711257935,9.739612579345703,11,1,0,3
1509145575424.0,-0.47884035110473633,1.1204863786697388,10.065223693847656,11,1,0,3
1509145575424.0,0.10534487664699554,1.015141487121582,9.634267807006836,11,1,0,3
1509145575424.0,-0.3064578175544739,1.235408067703247,9.528923034667969,11,1,0,3
1509145575424.0,-0.28730419278144836,1.3694833517074585,9.423578262329102,11,1,0,3
1509145575424.0,-0.07661445438861847,1.3215993642807007,9.749189376831055,11,1,0,3
1509145575424.0,-0.06703764945268631,1.1683704853057861,9.959878921508789,11,1,0,3
1509145575424.0,-0.15322890877723694,1.1779472827911377,9.586383819580078,11,1,0,3
1509150294016.0,0.24899697303771973,-0.15322890877723694,9.768342971801758,12,1,0,3
1509150294016.0,0.2298433631658554,-0.1628057211637497,9.816226959228516,12,1,0,3
1509150294016.0,0.2585737705230713,-0.17238251864910126,9.787496566772461,12,1,0,3
1509150294016.0,0.363918662071228,-0.20111294090747833,9.768342971801758,12,1,0,3
1509150294016.0,0.3447650372982025,-0.17238251864910126,9.720458984375,12,1,0,3
1509150294016.0,0.33518823981285095,-0.22026655077934265,9.768342971801758,12,1,0,3
1509150294016.0,0.3447650372982025,-0.2106897532939911,9.816226959228516,12,1,0,3
1509150294016.0,0.2298433631658554,-0.19153612852096558,9.84495735168457,12,1,0,3
1509150294016.0,0.3256114423274994,-0.2106897532939911,9.787496566772461,12,1,0,3
1509150294016.0,0.3256114423274994,-0.20111294090747833,9.730035781860352,12,1,0,3
1509150294016.0,0.2585737705230713,-0.17238251864910126,9.806650161743164,12,1,0,3
1509150294016.0,0.2968810200691223,-0.2106897532939911,9.825803756713867,12,1,0,3
1509150294016.0,0.28730419278144836,-0.19153612852096558,9.739612579345703,12,1,0,3
1509150294016.0,0.23942017555236816,-0.19153612852096558,9.749189376831055,12,1,0,3
1509150294016.0,0.2585737705230713,-0.181959331035614,9.739612579345703,12,1,0,3
1509150294016.0,0.3256114423274994,-0.19153612852096558,9.806650161743164,12,1,0,3
1509150294016.0,0.3064578175544739,-0.19153612852096558,9.797073364257812,12,1,0,3
1509150294016.0,0.3064578175544739,-0.17238251864910126,9.854534149169922,12,1,0,3
1509150294016.0,0.35434186458587646,-0.2298433631658554,9.806650161743164,12,1,0,3
1509150294016.0,0.2968810200691223,-0.19153612852096558,9.797073364257812,12,1,0,3
1509150294016.0,0.2298433631658554,-0.22026655077934265,9.816226959228516,12,1,0,3
1509150294016.0,0.35434186458587646,-0.2298433631658554,9.787496566772461,12,1,0,3
1509150294016.0,0.35434186458587646,-0.22026655077934265,9.720458984375,12,1,0,3
1509150294016.0,0.3064578175544739,-0.17238251864910126,9.672574996948242,12,1,0,3
1509150294016.0,0.31603461503982544,-0.23942017555236816,9.806650161743164,12,1,0,3
1509150294016.0,0.24899697303771973,-0.2106897532939911,9.873687744140625,12,1,0,3
1509150294016.0,0.2968810200691223,-0.2106897532939911,9.892841339111328,12,1,0,3
1509150294016.0,0.33518823981285095,-0.2106897532939911,9.806650161743164,12,1,0,3
1509150294016.0,0.28730419278144836,-0.2106897532939911,9.758766174316406,12,1,0,3
1509150294016.0,0.363918662071228,-0.23942017555236816,9.806650161743164,12,1,0,3
1509150294016.0,0.3447650372982025,-0.20111294090747833,9.787496566772461,12,1,0,3
1509150294016.0,0.2968810200691223,-0.20111294090747833,9.749189376831055,12,1,0,3
1509150294016.0,0.26815059781074524,-0.2106897532939911,9.730035781860352,12,1,0,3
1509150294016.0,0.22026655077934265,-0.20111294090747833,9.77791976928711,12,1,0,3
1509150294016.0,0.38307225704193115,-0.23942017555236816,9.84495735168457,12,1,0,3
1509150294016.0,0.2968810200691223,-0.22026655077934265,9.816226959228516,12,1,0,3
1509150294016.0,0.31603461503982544,-0.2298433631658554,9.816226959228516,12,1,0,3
1509150294016.0,0.2968810200691223,-0.2106897532939911,9.768342971801758,12,1,0,3
1509150294016.0,0.3256114423274994,-0.24899697303771973,9.758766174316406,12,1,0,3
1509150294016.0,0.3447650372982025,-0.22026655077934265,9.710882186889648,12,1,0,3
1509150294016.0,0.2777273952960968,-0.23942017555236816,9.758766174316406,12,1,0,3
1509150294016.0,0.2968810200691223,-0.181959331035614,9.816226959228516,12,1,0,3
1509150294016.0,0.2585737705230713,-0.20111294090747833,9.883264541625977,12,1,0,3
1509150294016.0,0.2968810200691223,-0.19153612852096558,9.835380554199219,12,1,0,3
1509150294016.0,0.3256114423274994,-0.22026655077934265,9.758766174316406,12,1,0,3
1509150294016.0,0.3734954595565796,-0.19153612852096558,9.730035781860352,12,1,0,3
1509150294016.0,0.28730419278144836,-0.20111294090747833,9.806650161743164,12,1,0,3
1509150294016.0,0.23942017555236816,-0.22026655077934265,9.797073364257812,12,1,0,3
1509150294016.0,0.31603461503982544,-0.22026655077934265,9.806650161743164,12,1,0,3
1509150294016.0,0.31603461503982544,-0.22026655077934265,9.768342971801758,12,1,0,3
1509150294016.0,0.23942017555236816,-0.22026655077934265,9.768342971801758,12,1,0,3
1509150294016.0,0.3256114423274994,-0.22026655077934265,9.768342971801758,12,1,0,3
1509150294016.0,0.2968810200691223,-0.2298433631658554,9.797073364257812,12,1,0,3
1509150294016.0,0.24899697303771973,-0.22026655077934265,9.749189376831055,12,1,0,3
1509150294016.0,0.26815059781074524,-0.22026655077934265,9.77791976928711,12,1,0,3
1509150294016.0,0.3447650372982025,-0.2298433631658554,9.787496566772461,12,1,0,3
1509150294016.0,0.3734954595565796,-0.24899697303771973,9.806650161743164,12,1,0,3
1509150294016.0,0.31603461503982544,-0.26815059781074524,9.806650161743164,12,1,0,3
1509150294016.0,0.31603461503982544,-0.26815059781074524,9.797073364257812,12,1,0,3
1509150294016.0,0.3064578175544739,-0.24899697303771973,9.825803756713867,12,1,0,3
1509150294016.0,0.3256114423274994,-0.2777273952960968,9.797073364257812,12,1,0,3
1509150294016.0,0.2298433631658554,-0.23942017555236816,9.77791976928711,12,1,0,3
1509150294016.0,0.28730419278144836,-0.2585737705230713,9.797073364257812,12,1,0,3
1509150294016.0,0.2777273952960968,-0.2298433631658554,9.797073364257812,12,1,0,3
1509150294016.0,0.2585737705230713,-0.23942017555236816,9.816226959228516,12,1,0,3
1509150294016.0,0.2298433631658554,-0.24899697303771973,9.835380554199219,12,1,0,3
1509150294016.0,0.3447650372982025,-0.24899697303771973,9.758766174316406,12,1,0,3
1509150294016.0,0.2298433631658554,-0.24899697303771973,9.701305389404297,12,1,0,3
1509150294016.0,0.24899697303771973,-0.24899697303771973,9.720458984375,12,1,0,3
1509150294016.0,0.181959331035614,-0.26815059781074524,9.66299819946289,12,1,0,3
1509150294016.0,0.22026655077934265,-0.24899697303771973,9.682151794433594,12,1,0,3
1509150294016.0,0.28730419278144836,-0.26815059781074524,9.77791976928711,12,1,0,3
1509150294016.0,0.3064578175544739,-0.26815059781074524,9.864110946655273,12,1,0,3
1509150294016.0,0.35434186458587646,-0.24899697303771973,9.749189376831055,12,1,0,3
1509150294016.0,0.31603461503982544,-0.2298433631658554,9.739612579345703,12,1,0,3
1509150294016.0,0.20111294090747833,-0.20111294090747833,9.806650161743164,12,1,0,3
1509150294016.0,0.24899697303771973,-0.2585737705230713,9.825803756713867,12,1,0,3
1509150294016.0,0.40222588181495667,-0.26815059781074524,9.77791976928711,12,1,0,3
1509150294016.0,0.363918662071228,-0.2298433631658554,9.768342971801758,12,1,0,3
1509150294016.0,0.28730419278144836,-0.2777273952960968,9.797073364257812,12,1,0,3
1509150294016.0,0.28730419278144836,-0.24899697303771973,9.77791976928711,12,1,0,3
1509150294016.0,0.2585737705230713,-0.26815059781074524,9.825803756713867,12,1,0,3
1509150294016.0,0.2777273952960968,-0.24899697303771973,9.758766174316406,12,1,0,3
1509150294016.0,0.2585737705230713,-0.22026655077934265,9.758766174316406,12,1,0,3
1509150294016.0,0.2777273952960968,-0.2777273952960968,9.787496566772461,12,1,0,3
1509150294016.0,0.3064578175544739,-0.2585737705230713,9.787496566772461,12,1,0,3
1509150294016.0,0.33518823981285095,-0.2298433631658554,9.758766174316406,12,1,0,3
1509150294016.0,0.2777273952960968,-0.2585737705230713,9.701305389404297,12,1,0,3
1509150294016.0,0.24899697303771973,-0.2777273952960968,9.77791976928711,12,1,0,3
1509150294016.0,0.3064578175544739,-0.2585737705230713,9.749189376831055,12,1,0,3
1509150294016.0,0.31603461503982544,-0.26815059781074524,9.797073364257812,12,1,0,3
1509150294016.0,0.3064578175544739,-0.24899697303771973,9.77791976928711,12,1,0,3
1509150294016.0,0.28730419278144836,-0.24899697303771973,9.701305389404297,12,1,0,3
1509150294016.0,0.26815059781074524,-0.2585737705230713,9.758766174316406,12,1,0,3
1509150294016.0,0.2106897532939911,-0.2585737705230713,9.806650161743164,12,1,0,3
1509150294016.0,0.28730419278144836,-0.23942017555236816,9.720458984375,12,1,0,3
1509150294016.0,0.2585737705230713,-0.2585737705230713,9.768342971801758,12,1,0,3
1509150294016.0,0.22026655077934265,-0.24899697303771973,9.758766174316406,12,1,0,3
1509150294016.0,0.24899697303771973,-0.2298433631658554,9.77791976928711,12,1,0,3
1509150294016.0,0.2777273952960968,-0.20111294090747833,9.816226959228516,12,1,0,3
1509150294016.0,0.2777273952960968,-0.2585737705230713,9.653421401977539,12,1,0,3
1509150294016.0,0.28730419278144836,-0.2298433631658554,9.739612579345703,12,1,0,3
1509150294016.0,0.3064578175544739,-0.2298433631658554,9.710882186889648,12,1,0,3
1509150294016.0,0.38307225704193115,-0.2298433631658554,9.768342971801758,12,1,0,3
1509150294016.0,0.28730419278144836,-0.2585737705230713,9.806650161743164,12,1,0,3
1509150294016.0,0.23942017555236816,-0.23942017555236816,9.77791976928711,12,1,0,3
1509150294016.0,0.3256114423274994,-0.23942017555236816,9.806650161743164,12,1,0,3
1509150294016.0,0.23942017555236816,-0.181959331035614,9.758766174316406,12,1,0,3
1509150294016.0,0.22026655077934265,-0.181959331035614,9.749189376831055,12,1,0,3
1509150294016.0,0.2968810200691223,-0.23942017555236816,9.710882186889648,12,1,0,3
1509150294016.0,0.181959331035614,-0.181959331035614,9.835380554199219,12,1,0,3
1509150294016.0,0.12449848651885986,-0.2106897532939911,9.873687744140625,12,1,0,3
1509150294016.0,0.35434186458587646,-0.17238251864910126,9.835380554199219,12,1,0,3
1509150294016.0,0.4405331015586853,-0.24899697303771973,9.816226959228516,12,1,0,3
1509150294016.0,0.2777273952960968,-0.22026655077934265,9.835380554199219,12,1,0,3
1509150294016.0,0.35434186458587646,-0.22026655077934265,9.797073364257812,12,1,0,3
1509150294016.0,0.40222588181495667,-0.20111294090747833,9.816226959228516,12,1,0,3
1509150294016.0,0.4118026793003082,-0.2585737705230713,9.758766174316406,12,1,0,3
1509418860544.0,-0.31011962890625,4.11004638671875,9.072219848632812,13,1,0,3
1509418860544.0,-0.6724395751953125,3.463623046875,10.930130004882812,13,1,0,3
1509418860544.0,0.3394927978515625,2.73419189453125,11.967605590820312,13,1,0,3
1509418860544.0,1.0098876953125,1.19390869140625,13.357040405273438,13,1,0,3
1509418860544.0,0.85345458984375,1.647216796875,10.620468139648438,13,1,0,3
1509418860544.0,1.8909454345703125,1.746185302734375,7.859954833984375,13,1,0,3
1509418860544.0,0.9771575927734375,0.964874267578125,7.0419464111328125,13,1,0,3
1509418860544.0,0.8566436767578125,4.00390625,6.5623016357421875,13,1,0,3
1509418860544.0,0.605255126953125,3.9384613037109375,8.61334228515625,13,1,0,3
1509418860544.0,0.539825439453125,3.935272216796875,7.47369384765625,13,1,0,3
1509418860544.0,0.2916259765625,4.4085235595703125,7.843994140625,13,1,0,3
1509418860544.0,0.31317138671875,4.2385406494140625,8.385086059570312,13,1,0,3
1509418860544.0,0.51348876953125,5.0733184814453125,8.764175415039062,13,1,0,3
1509418860544.0,0.9093170166015625,4.4715728759765625,9.706680297851562,13,1,0,3
1509418860544.0,0.8766021728515625,3.612060546875,8.991622924804688,13,1,0,3
1509418860544.0,0.2365570068359375,2.81878662109375,8.294113159179688,13,1,0,3
1509418860544.0,0.8111572265625,3.236968994140625,9.18634033203125,13,1,0,3
1509418860544.0,1.342681884765625,3.1244354248046875,10.2525634765625,13,1,0,3
1509418860544.0,1.9053192138671875,3.746124267578125,9.843948364257812,13,1,0,3
1509418860544.0,0.7185821533203125,3.71661376953125,8.009994506835938,13,1,0,3
1509418860544.0,1.6690826416015625,4.5027008056640625,9.140853881835938,13,1,0,3
1509418860544.0,1.282012939453125,4.5170745849609375,9.919769287109375,13,1,0,3
1509418860544.0,0.48394775390625,3.4356842041015625,8.322845458984375,13,1,0,3
1509418860544.0,0.6284027099609375,2.3670654296875,7.4864654541015625,13,1,0,3
1509418860544.0,-0.0643157958984375,5.0086822509765625,8.269363403320312,13,1,0,3
1509418860544.0,-0.30853271484375,3.81317138671875,9.779312133789062,13,1,0,3
1509418860544.0,1.535797119140625,3.8155670166015625,11.174331665039062,13,1,0,3
1509418860544.0,-0.33087158203125,0.7884979248046875,9.019546508789062,13,1,0,3
1509418860544.0,2.8589935302734375,4.2161865234375,9.140060424804688,13,1,0,3
1509418860544.0,0.605255126953125,2.745361328125,9.479232788085938,13,1,0,3
1509418860544.0,2.7321014404296875,3.1930694580078125,10.218246459960938,13,1,0,3
1509418860544.0,2.3019561767578125,2.43890380859375,9.215072631835938,13,1,0,3
1509418860544.0,2.50225830078125,0.1229095458984375,10.318801879882812,13,1,0,3
1509418860544.0,2.27880859375,1.4923858642578125,9.159210205078125,13,1,0,3
1509418860544.0,1.6052398681640625,1.4485015869140625,10.33795166015625,13,1,0,3
1509418860544.0,2.6562957763671875,2.750946044921875,8.810455322265625,13,1,0,3
1509418860544.0,1.5501708984375,2.2034759521484375,9.171173095703125,13,1,0,3
1509418860544.0,2.441619873046875,0.42059326171875,9.421768188476562,13,1,0,3
1509418860544.0,2.41766357421875,-0.154022216796875,10.542266845703125,13,1,0,3
1509418860544.0,2.31072998046875,0.1588134765625,11.285263061523438,13,1,0,3
1509418860544.0,0.53582763671875,1.2593536376953125,8.96368408203125,13,1,0,3
1509418860544.0,-0.77301025390625,3.8211517333984375,9.462478637695312,13,1,0,3
1509418860544.0,-3.0738372802734375,3.8379058837890625,10.025909423828125,13,1,0,3
1509418860544.0,-1.000457763671875,2.16595458984375,9.958877563476562,13,1,0,3
1509418860544.0,-0.3859405517578125,3.7174072265625,7.9820709228515625,13,1,0,3
1509418860544.0,-0.6700592041015625,4.9097137451171875,8.08740234375,13,1,0,3
1509418860544.0,0.85186767578125,4.20263671875,9.461685180664062,13,1,0,3
1509418860544.0,2.53179931640625,2.93609619140625,9.638046264648438,13,1,0,3
1509418860544.0,1.74969482421875,1.3814544677734375,8.330825805664062,13,1,0,3
1509418860544.0,2.992279052734375,3.3925933837890625,7.8192596435546875,13,1,0,3
1509418860544.0,-0.1497039794921875,3.9272918701171875,9.982025146484375,13,1,0,3
1509418860544.0,-1.425811767578125,1.1053314208984375,13.512664794921875,13,1,0,3
