time,Acc_x,Acc_y,Acc_z,id,scenario,behavior,class,Rss
1509149376512.0,-0.009576806798577309,-0.2777273952960968,9.768342971801758,0,1,1,4,95.49774863607522
1509149376512.0,0.10534487664699554,-0.2873041927814484,9.710882186889648,0,1,1,4,94.39487408987625
1509149376512.0,0.1628057211637497,-0.26815059781074524,9.730035781860352,0,1,1,4,94.77200676223269
1509149376512.0,0.2011129409074784,-0.3543418645858765,9.720458984375,0,1,1,4,94.65332743891531
1509149376512.0,0.08619125932455063,-0.3351882398128509,9.797073364257812,0,1,1,4,96.10242659394268
1509149376512.0,0.05746084079146385,-0.31603461503982544,9.787496566772461,0,1,1,4,95.89826867071054
1509149376512.0,0.07661445438861847,-0.2968810200691223,9.730035781860352,0,1,1,4,94.76760443098134
1509149376512.0,0.1149216815829277,-0.2968810200691223,9.749189376831056,0,1,1,4,95.14803883829065
1509149376512.0,0.12449848651885985,-0.2968810200691223,9.739612579345703,0,1,1,4,94.96369140897183
1509149376512.0,0.08619125932455063,-0.31603461503982544,9.730035781860352,0,1,1,4,94.78090312737011
1509149376512.0,0.12449848651885985,-0.2968810200691223,9.710882186889648,0,1,1,4,94.40487106087345
1509149376512.0,0.15322890877723694,-0.2968810200691223,9.710882186889648,0,1,1,4,94.41285028621303
1509149376512.0,0.10534487664699554,-0.2873041927814484,9.816226959228516,0,1,1,4,96.45195295731028
1509149376512.0,0.05746084079146385,-0.3064578175544739,9.816226959228516,0,1,1,4,96.45552985724942
1509149376512.0,0.13407529890537262,-0.2968810200691223,9.816226959228516,0,1,1,4,96.46442624093856
1509149376512.0,0.22026655077934265,-0.31603461503982544,9.691728591918944,0,1,1,4,94.07799833071475
1509149376512.0,0.2585737705230713,-0.2777273952960968,9.672574996948242,0,1,1,4,93.70269997248876
1509149376512.0,0.1628057211637497,-0.2394201755523681,9.739612579345703,0,1,1,4,94.94388091905424
1509149376512.0,0.1628057211637497,-0.2777273952960968,9.77791976928711,0,1,1,4,95.71135322355728
1509149376512.0,0.2011129409074784,-0.2968810200691223,9.758766174316406,0,1,1,4,95.3621020000598
1509149376512.0,0.2106897532939911,-0.2777273952960968,9.701305389404297,0,1,1,4,94.23684893672589
1509149376512.0,0.1149216815829277,-0.22026655077934265,9.758766174316406,0,1,1,4,95.29524159127214
1509149376512.0,0.08619125932455063,-0.22026655077934265,9.825803756713867,0,1,1,4,96.60236575202853
1509149376512.0,0.17238251864910126,-0.2777273952960968,9.768342971801758,0,1,1,4,95.52737265358256
1509149376512.0,0.2489969730377197,-0.2585737705230713,9.720458984375,0,1,1,4,94.61618275430112
1509149376512.0,0.22026655077934265,-0.2394201755523681,9.720458984375,0,1,1,4,94.59316224077041
1509149376512.0,0.17238251864910126,-0.2489969730377197,9.720458984375,0,1,1,4,94.57903809223441
1509149376512.0,0.17238251864910126,-0.2489969730377197,9.739612579345703,0,1,1,4,94.95176842106682
1509149376512.0,0.1915361285209656,-0.2011129409074784,9.768342971801758,0,1,1,4,95.49765691827805
1509149376512.0,0.22026655077934265,-0.2298433631658554,9.83538055419922,0,1,1,4,96.83605597090379
1509149376512.0,0.2394201755523681,-0.2106897532939911,9.854534149169922,0,1,1,4,97.21355548976076
1509149376512.0,0.2394201755523681,-0.2489969730377197,9.77791976928711,0,1,1,4,95.72703652765915
1509149376512.0,0.2489969730377197,-0.2489969730377197,9.749189376831056,0,1,1,4,95.17069249047941
1509149376512.0,0.2298433631658554,-0.2489969730377197,9.797073364257812,0,1,1,4,96.09747396882324
1509149376512.0,0.2873041927814484,-0.2298433631658554,9.825803756713867,0,1,1,4,96.68179113623354
1509149376512.0,0.3064578175544739,-0.2106897532939911,9.768342971801758,0,1,1,4,95.55883098083213
1509149376512.0,0.2394201755523681,-0.22026655077934265,9.682151794433594,0,1,1,4,93.84990274430741
1509149376512.0,0.2585737705230713,-0.2394201755523681,9.672574996948242,0,1,1,4,93.68288948685233
1509149376512.0,0.2777273952960968,-0.22026655077934265,9.797073364257812,0,1,1,4,96.10829636414007
1509149376512.0,0.31603461503982544,-0.2394201755523681,9.883264541625977,0,1,1,4,97.83611789812622
1509149376512.0,0.2489969730377197,-0.2777273952960968,9.83538055419922,0,1,1,4,96.87384264460006
1509149376512.0,0.181959331035614,-0.2011129409074784,9.806650161743164,0,1,1,4,96.24394300796861
1509149376512.0,0.3064578175544739,-0.2298433631658554,9.701305389404297,0,1,1,4,94.2620706240165
1509149376512.0,0.4213795065879822,-0.22026655077934265,9.672574996948242,0,1,1,4,93.78478511355284
1509149376512.0,0.3734954595565796,-0.22026655077934265,9.701305389404297,0,1,1,4,94.30334247018646
1509149376512.0,0.363918662071228,-0.2011129409074784,9.77791976928711,0,1,1,4,95.78059822221985
1509149376512.0,0.2873041927814484,-0.2106897532939911,9.825803756713867,0,1,1,4,96.67335333678523
1509149376512.0,0.31603461503982544,-0.26815059781074524,9.883264541625977,0,1,1,4,97.85070062077095
1509149376512.0,0.363918662071228,-0.22026655077934265,9.883264541625977,0,1,1,4,97.85987214575727
1509149376512.0,0.2968810200691223,-0.1628057211637497,9.83538055419922,0,1,1,4,96.84935468884109
1509149376512.0,-0.019153613597154617,0.0,9.768342971801758,1,1,1,4,95.42089127566263
1509149376512.0,-0.1149216815829277,-0.019153613597154617,9.864110946655273,1,1,1,4,97.31425862173607
1509149376512.0,-0.08619125932455063,-0.009576806798577309,9.758766174316406,1,1,1,4,95.24103789339448
1509149376512.0,-0.12449848651885985,-0.009576806798577309,9.653421401977539,1,1,1,4,93.20413635253195
1509149376512.0,-0.1915361285209656,0.0,9.701305389404297,1,1,1,4,94.15201234701365
1509149376512.0,-0.3064578175544739,-0.019153613597154617,9.797073364257812,1,1,1,4,96.07692975950397
1509149376512.0,-0.13407529890537262,-0.019153613597154617,9.84495735168457,1,1,1,4,96.94152830317846
1509149376512.0,0.0,0.0,9.768342971801758,1,1,1,4,95.4205244147488
1509149376512.0,-0.1149216815829277,0.019153613597154617,9.768342971801758,1,1,1,4,95.43409826856048
1509149376512.0,-0.2489969730377197,-0.019153613597154617,9.911994934082033,1,1,1,4,98.31000992676366
1509149376512.0,-0.1149216815829277,-0.009576806798577309,9.873687744140623,1,1,1,4,97.50300837691906
1509149376512.0,-0.028730420395731926,0.009576806798577309,9.758766174316406,1,1,1,4,95.23443439726664
1509149376512.0,-0.14365209639072418,0.0,9.672574996948242,1,1,1,4,93.57934299638573
1509149376512.0,-0.31603461503982544,0.019153613597154617,9.720458984375,1,1,1,4,94.58756760573385
1509149376512.0,-0.1628057211637497,0.019153613597154617,9.787496566772461,1,1,1,4,95.82196160834019
1509149376512.0,-0.2394201755523681,0.009576806798577309,9.864110946655273,1,1,1,4,97.35809850361439
1509149376512.0,-0.17238251864910126,0.009576806798577309,9.787496566772461,1,1,1,4,95.82489649254697
1509149376512.0,-0.14365209639072418,0.028730420395731926,9.768342971801758,1,1,1,4,95.44198577660237
1509149376512.0,-0.22026655077934265,0.019153613597154617,9.816226959228516,1,1,1,4,96.40719592939077
1509149376512.0,-0.2394201755523681,0.009576806798577309,9.873687744140623,1,1,1,4,97.54712340448275
1509149376512.0,-0.2011129409074784,0.028730420395731926,9.749189376831056,1,1,1,4,95.08796535737208
1509149376512.0,-0.14365209639072418,0.05746084079146385,9.701305389404297,1,1,1,4,94.13926393150676
1509149376512.0,-0.2106897532939911,0.047884032130241394,9.720458984375,1,1,1,4,94.53400591959279
1509149376512.0,-0.17238251864910126,0.028730420395731926,9.825803756713867,1,1,1,4,96.57696063524426
1509149376512.0,-0.2011129409074784,0.019153613597154617,9.931148529052734,1,1,1,4,98.66852438202058
1509149376512.0,-0.2106897532939911,0.009576806798577309,9.911994934082033,1,1,1,4,98.29212546063943
1509149376512.0,-0.2298433631658554,0.028730420395731926,9.749189376831056,1,1,1,4,95.10034691396302
1509149376512.0,-0.2011129409074784,0.028730420395731926,9.768342971801758,1,1,1,4,95.46179626680537
1509149376512.0,-0.17238251864910126,0.019153613597154617,9.816226959228516,1,1,1,4,96.38839430873435
1509149376512.0,-0.2106897532939911,0.009576806798577309,9.787496566772461,1,1,1,4,95.83957093195426
1509149376512.0,-0.2585737705230713,0.009576806798577309,9.768342971801758,1,1,1,4,95.48747652477978
1509149376512.0,-0.0957680642604828,-0.019153613597154617,9.758766174316406,1,1,1,4,95.2430556280281
1509149376512.0,-0.0957680642604828,0.019153613597154617,9.787496566772461,1,1,1,4,95.80462742762874
1509149376512.0,-0.181959331035614,0.0,9.83538055419922,1,1,1,4,96.76781984407108
1509149376512.0,-0.15322890877723694,0.009576806798577309,9.806650161743164,1,1,1,4,96.19395820853074
1509149376512.0,-0.15322890877723694,0.028730420395731926,9.83538055419922,1,1,1,4,96.75901518146134
1509149376512.0,-0.2298433631658554,0.019153613597154617,9.797073364257812,1,1,1,4,96.03584133715512
1509149376512.0,-0.1149216815829277,0.028730420395731926,9.816226959228516,1,1,1,4,96.37234414503867
1509149376512.0,-0.1149216815829277,0.028730420395731926,9.825803756713867,1,1,1,4,96.5604518954063
1509149376512.0,-0.2298433631658554,0.009576806798577309,9.797073364257812,1,1,1,4,96.03556619146974
1509149376512.0,-0.2968810200691223,0.019153613597154617,9.787496566772461,1,1,1,4,95.88359424557382
1509149376512.0,-0.1628057211637497,0.019153613597154617,9.806650161743164,1,1,1,4,96.1972599585747
1509149376512.0,-0.17238251864910126,0.0,9.806650161743164,1,1,1,4,96.20010312755304
1509149376512.0,-0.3064578175544739,-0.009576806798577309,9.739612579345703,1,1,1,4,94.95406130491777
1509149376512.0,-0.2011129409074784,0.019153613597154617,9.768342971801758,1,1,1,4,95.46133769066309
1509149376512.0,-0.06703764945268631,0.038307227194309235,9.83538055419922,1,1,1,4,96.74067213601961
1509149376512.0,-0.1149216815829277,0.019153613597154617,9.816226959228516,1,1,1,4,96.37188556889639
1509149376512.0,-0.2106897532939911,0.0,9.787496566772461,1,1,1,4,95.83947921672579
1509149376512.0,-0.2011129409074784,0.019153613597154617,9.749189376831056,1,1,1,4,95.0875067812298
1509149376512.0,-0.2106897532939911,0.038307227194309235,9.864110946655273,1,1,1,4,97.34654238372279
1509150294016.0,0.4405331015586853,-0.2777273952960968,9.490615844726562,2,1,1,4,90.34299103184175
1509150294016.0,0.2585737705230713,-0.2968810200691223,9.60553741455078,2,1,1,4,92.42134775721468
1509150294016.0,0.2585737705230713,-0.31603461503982544,9.567230224609377,2,1,1,4,91.69863244338507
1509150294016.0,0.22026655077934265,-0.3351882398128509,9.624691009521484,2,1,1,4,92.79554553826476
1509150294016.0,0.2489969730377197,-0.2489969730377197,9.825803756713867,2,1,1,4,96.67041845061624
1509150294016.0,0.3064578175544739,-0.26815059781074524,9.797073364257812,2,1,1,4,96.1484676416964
1509150294016.0,0.2585737705230713,-0.2489969730377197,9.96945571899414,2,1,1,4,99.51890722036944
1509150294016.0,0.2106897532939911,-0.26815059781074524,9.854534149169922,2,1,1,4,97.2281382124055
1509150294016.0,0.2777273952960968,-0.2394201755523681,9.825803756713867,2,1,1,4,96.68087399201183
1509150294016.0,0.363918662071228,-0.31603461503982544,9.66299819946289,2,1,1,4,93.60584887333015
1509150294016.0,0.2777273952960968,-0.2968810200691223,9.60553741455078,2,1,1,4,92.43161986851011
1509150294016.0,0.13407529890537262,-0.3064578175544739,9.701305389404297,2,1,1,4,94.22721883820168
1509150294016.0,0.3064578175544739,-0.3447650372982025,9.787496566772461,2,1,1,4,96.0078683694662
1509150294016.0,0.4788403511047363,-0.3351882398128509,9.797073364257812,2,1,1,4,96.32428574260484
1509150294016.0,0.2777273952960968,-0.363918662071228,9.691728591918944,2,1,1,4,94.13917239812082
1509150294016.0,0.2106897532939911,-0.3351882398128509,9.77791976928711,2,1,1,4,95.7644563428676
1509150294016.0,0.181959331035614,-0.3447650372982025,9.787496566772461,2,1,1,4,95.94706117367687
1509150294016.0,0.4405331015586853,-0.3447650372982025,9.787496566772461,2,1,1,4,96.10802138909486
1509150294016.0,0.4118026793003082,-0.3543418645858765,9.624691009521484,2,1,1,4,92.9298166324408
1509150294016.0,0.2777273952960968,-0.3447650372982025,9.691728591918944,2,1,1,4,94.12559853646034
1509150294016.0,0.2298433631658554,-0.3447650372982025,9.77791976928711,2,1,1,4,95.7794059171503
1509150294016.0,0.4022258818149567,-0.3830722570419312,9.83538055419922,2,1,1,4,97.04324066003718
1509150294016.0,0.2585737705230713,-0.3543418645858765,9.710882186889648,2,1,1,4,94.4936513994514
1509150294016.0,0.26815059781074524,-0.3543418645858765,9.624691009521484,2,1,1,4,92.83213992886814
1509150294016.0,0.2968810200691223,-0.3830722570419312,9.691728591918944,2,1,1,4,94.16448579361163
1509150294016.0,0.2298433631658554,-0.4022258818149567,9.864110946655273,2,1,1,4,97.5152983995176
1509150294016.0,0.2011129409074784,-0.4213795065879822,9.883264541625977,2,1,1,4,97.89692510333411
1509150294016.0,0.2298433631658554,-0.4022258818149567,9.806650161743164,2,1,1,4,96.38500102641044
1509150294016.0,0.2777273952960968,-0.4022258818149567,9.66299819946289,2,1,1,4,93.61245236892285
1509150294016.0,0.3447650372982025,-0.363918662071228,9.615114212036133,2,1,1,4,92.70172103404617
1509150294016.0,0.3256114423274994,-0.3926490843296051,9.710882186889648,2,1,1,4,94.56142896245015
1509150294016.0,0.181959331035614,-0.3543418645858765,9.83538055419922,2,1,1,4,96.89337800106928
1509150294016.0,0.22026655077934265,-0.3926490843296051,9.883264541625977,2,1,1,4,97.88160865657844
1509150294016.0,0.3064578175544739,-0.3926490843296051,9.749189376831056,2,1,1,4,95.29478320268065
1509150294016.0,0.2298433631658554,-0.3734954595565796,9.710882186889648,2,1,1,4,94.49355967755146
1509150294016.0,0.3064578175544739,-0.3830722570419312,9.768342971801758,2,1,1,4,95.66118516280424
1509150294016.0,0.2011129409074784,-0.3543418645858765,9.83538055419922,2,1,1,4,96.90071521791882
1509150294016.0,0.2394201755523681,-0.3543418645858765,9.730035781860352,2,1,1,4,94.8564764937425
1509150294016.0,0.2968810200691223,-0.3351882398128509,9.730035781860352,2,1,1,4,94.8740858124689
1509150294016.0,0.22026655077934265,-0.3543418645858765,9.816226959228516,2,1,1,4,96.53238722547513
1509150294016.0,0.13407529890537262,-0.3543418645858765,9.749189376831056,2,1,1,4,95.19022784809027
1509150294016.0,0.2873041927814484,-0.363918662071228,9.768342971801758,2,1,1,4,95.63550490654231
1509150294016.0,0.2968810200691223,-0.3734954595565796,9.797073364257812,2,1,1,4,96.21028370303655
1509150294016.0,0.2489969730377197,-0.3926490843296051,9.682151794433594,2,1,1,4,93.96023616646049
1509150294016.0,0.3543418645858765,-0.4213795065879822,9.720458984375,2,1,1,4,94.79044171248718
1509150294016.0,0.2394201755523681,-0.3447650372982025,9.730035781860352,2,1,1,4,94.84978126768755
1509150294016.0,0.31603461503982544,-0.3734954595565796,9.892841339111328,2,1,1,4,98.10768649704276
1509150294016.0,0.2777273952960968,-0.4022258818149567,9.710882186889648,2,1,1,4,94.54015101375046
1509150294016.0,0.2873041927814484,-0.3734954595565796,9.816226959228516,2,1,1,4,96.58035427258389
1509150294016.0,0.3447650372982025,-0.3256114423274994,9.816226959228516,2,1,1,4,96.58319745740253
1509156454400.0,0.4213795065879822,2.1260511875152592,9.634267807006836,3,1,1,4,97.51677051763568
1509156454400.0,0.4596867263317108,2.1164743900299072,9.60553741455078,3,1,1,4,96.95712475235291
1509156454400.0,0.10534487664699554,2.202665567398072,9.232041358947754,3,1,1,4,90.09342079815873
1509156454400.0,0.07661445438861847,1.944091796875,9.47146224975586,3,1,1,4,93.49395983784825
1509156454400.0,-0.009576806798577309,2.0590133666992188,10.113107681274414,3,1,1,4,106.51457473252606
1509156454400.0,0.2011129409074784,2.0207061767578125,9.730035781860352,3,1,1,4,98.79729618407042
1509156454400.0,0.507570743560791,1.915361404418945,9.2033109664917,3,1,1,4,88.62717011520294
1509156454400.0,0.3256114423274994,2.240972757339477,9.308655738830566,3,1,1,4,91.77905337457553
1509156454400.0,0.4501099288463593,1.8100165128707888,9.959878921508787,3,1,1,4,102.67794685602605
1509156454400.0,0.181959331035614,2.039859771728516,9.59596061706543,3,1,1,4,96.27659725073798
1509156454400.0,0.019153613597154617,2.202665567398072,8.992621421813965,3,1,1,4,85.71934249878231
1509156454400.0,-0.13407529890537262,1.522712230682373,10.362105369567873,3,1,1,4,109.7098564132736
1509156454400.0,-0.2489969730377197,1.6950948238372805,9.730035781860352,3,1,1,4,97.60894227066467
1509156454400.0,-0.009576806798577309,1.9632453918457031,9.289502143859863,3,1,1,4,90.14927426460883
1509156454400.0,0.4213795065879822,1.8770540952682493,9.84495735168457,3,1,1,4,100.6240780216237
1509156454400.0,0.4692635238170624,2.2122423648834237,9.41400146484375,3,1,1,4,93.73764811585048
1509156454400.0,0.2106897532939911,2.097320795059204,9.040505409240724,3,1,1,4,86.17388274404165
1509156454400.0,-0.12449848651885985,2.183511972427368,9.615114212036133,3,1,1,4,97.23364571737837
1509156454400.0,-0.181959331035614,2.231395959854126,9.394847869873047,3,1,1,4,93.27540362586237
1509156454400.0,-0.06703764945268631,2.279279947280884,9.241618156433104,3,1,1,4,90.60711727383489
1509156454400.0,-0.06703764945268631,2.1164743900299072,8.695740699768066,3,1,1,4,80.09986420769943
1509156454400.0,0.07661445438861847,2.0207061767578125,9.77791976928711,3,1,1,4,99.69683824202411
1509156454400.0,0.2777273952960968,2.0590133666992188,9.557653427124023,3,1,1,4,95.6654075833596
1509156454400.0,0.15322890877723694,2.451662540435791,9.576807022094727,3,1,1,4,97.74936104910401
1509156454400.0,0.3926490843296051,2.0590133666992188,9.35654067993164,3,1,1,4,91.93856284288658
1509156454400.0,-0.4692635238170624,2.4420857429504395,9.59596061706543,3,1,1,4,98.26645119497775
1509156454400.0,-0.07661445438861847,1.8483237028121948,9.500192642211914,3,1,1,4,93.67583052413603
1509156454400.0,-0.6799532771110535,2.154781579971313,9.117119789123537,3,1,1,4,88.22729336566573
1509156454400.0,0.15322890877723694,1.656787633895874,9.174580574035645,3,1,1,4,86.94135307178757
1509156454400.0,-0.17238251864910126,2.250549554824829,8.983044624328613,3,1,1,4,85.78977975413724
1509156454400.0,0.3351882398128509,1.972822189331055,9.940725326538086,3,1,1,4,102.82239856450155
1509156454400.0,-0.009576806798577309,2.3942017555236816,8.877699851989746,3,1,1,4,84.54584842339989
1509156454400.0,-0.07661445438861847,2.298433542251587,9.682151794433594,3,1,1,4,99.0327298932221
1509156454400.0,-0.26815059781074524,2.039859771728516,9.097966194152832,3,1,1,4,87.00592150137034
1509156454400.0,-0.6607996821403503,2.403778553009033,10.017339706420898,3,1,1,4,106.56190234565972
1509156454400.0,0.0,2.183511972427368,8.868123054504395,3,1,1,4,83.41133104356601
1509156454400.0,0.0,2.365471363067627,9.059659004211426,3,1,1,4,87.67287604208218
1509156454400.0,-0.17238251864910126,2.403778553009033,9.433155059814453,3,1,1,4,94.79228144714503
1509156454400.0,-0.17238251864910126,2.365471363067627,9.404424667358398,3,1,1,4,94.06837382624795
1509156454400.0,0.2489969730377197,2.3750481605529785,9.337387084960938,3,1,1,4,92.88965083192335
1509156454400.0,0.08619125932455063,2.346317768096924,9.557653427124023,3,1,1,4,96.86137503508687
1509156454400.0,0.1149216815829277,2.183511972427368,8.791508674621582,3,1,1,4,82.07155630257803
1509156454400.0,-0.5841852426528931,2.6144683361053467,9.634267807006836,3,1,1,4,99.99583325535919
1509156454400.0,0.028730420395731926,1.9823989868164065,9.404424667358398,3,1,1,4,92.37393450400596
1509156454400.0,0.13407529890537262,2.518700122833252,9.002198219299316,3,1,1,4,87.40139927409258
1509156454400.0,0.2585737705230713,2.4899697303771973,10.065223693847656,3,1,1,4,107.57553766018947
1509156454400.0,0.6512228846549988,2.279279947280884,9.35654067993164,3,1,1,4,93.16406181879077
1509156454400.0,0.038307227194309235,2.6431987285614014,9.193734169006348,3,1,1,4,91.51271493267876
1509156454400.0,-0.1628057211637497,2.4612393379211426,9.634267807006836,3,1,1,4,98.90332095850246
1509156454400.0,-0.06703764945268631,2.4420857429504395,9.08838939666748,3,1,1,4,88.56709864782383
1509247156224.0,8.726394653320312,2.4309234619140625,-4.3424835205078125,4,1,1,4,100.91651564906351
1509247156224.0,8.59710693359375,2.7693023681640625,-4.1509552001953125,4,1,1,4,98.80971230799332
1509247156224.0,11.327301025390625,1.2018890380859375,-1.9530792236328125,4,1,1,4,133.5668042334728
1509247156224.0,4.578033447265625,4.8921661376953125,-5.9442138671875,4,1,1,4,80.22535826195963
1509247156224.0,3.341033935546875,3.418930053710937,-3.1844940185546875,4,1,1,4,32.992592624854296
1509247156224.0,19.20101928710937,-8.991012573242188,1.5328826904296875,4,1,1,4,451.86717809876416
1509247156224.0,-5.1591796875,9.959884643554688,-5.1102294921875,4,1,1,4,151.930882623652
1509247156224.0,12.39111328125,-0.321624755859375,-2.07757568359375,4,1,1,4,157.95945155341178
1509247156224.0,10.14935302734375,1.2322235107421875,-4.1796875,4,1,1,4,121.9975292517338
1509247156224.0,5.1247100830078125,6.7740020751953125,-2.190093994140625,4,1,1,4,76.94626925280318
1509247156224.0,13.144485473632812,0.7884979248046875,-2.13104248046875,4,1,1,4,177.94056939752772
1509247156224.0,0.0106964111328125,10.063629150390623,-5.1964263916015625,4,1,1,4,128.27959333313623
1509247156224.0,17.527481079101562,-5.1036376953125,0.3166351318359375,4,1,1,4,333.3599685099907
1509247156224.0,-2.1496734619140625,10.471450805664062,-6.8827362060546875,4,1,1,4,161.6444356504362
1509247156224.0,10.949005126953123,0.2976837158203125,-0.846954345703125,4,1,1,4,120.68666052841577
1509247156224.0,13.261016845703125,-2.81317138671875,-1.8700714111328125,4,1,1,4,187.26566811581142
1509247156224.0,4.207733154296875,6.063720703125,-2.916351318359375,4,1,1,4,62.97883207537234
1509247156224.0,14.886672973632812,-4.1539306640625,-0.570831298828125,4,1,1,4,239.19402055745013
1509247156224.0,1.9420318603515625,8.646270751953125,-5.5786895751953125,4,1,1,4,109.65126303909346
1509247156224.0,17.198684692382812,-8.541702270507812,4.561538696289063,4,1,1,4,389.5630681037437
1509247156224.0,0.8438720703125,10.451492309570312,-3.8101806640625,4,1,1,4,124.46328826085664
1509247156224.0,14.776535034179688,-5.552947998046875,3.644561767578125,4,1,1,4,262.4640495630447
1509247156224.0,0.76885986328125,9.496200561523438,-9.68475341796875,4,1,1,4,184.5634193609003
1509247156224.0,10.631378173828123,-1.2178497314453125,0.38446044921875,4,1,1,4,114.6571696803439
1509247156224.0,10.86920166015625,-2.7493438720703125,-3.2483367919921875,4,1,1,4,136.25012837024406
1509247156224.0,5.278732299804688,3.933685302734375,-4.417510986328125,4,1,1,4,62.853298068279415
1509247156224.0,14.014389038085938,-3.0142974853515625,-2.5300750732421875,4,1,1,4,211.8903693172615
1509247156224.0,2.3713836669921875,8.180206298828125,-5.557144165039063,4,1,1,4,103.42108685849236
1509247156224.0,15.7078857421875,-4.465179443359375,-0.02734375,4,1,1,4,266.67624963168055
1509247156224.0,3.302734375,7.4810791015625,-3.94744873046875,4,1,1,4,82.45695035532117
1509247156224.0,15.505172729492188,-7.16424560546875,3.372421264648437,4,1,1,4,303.1100216531195
1509247156224.0,4.5509033203125,8.37652587890625,-3.069580078125,4,1,1,4,100.29922868683934
1509247156224.0,15.912185668945312,-9.102752685546877,4.95819091796875,4,1,1,4,360.6414163962472
1509247156224.0,4.092010498046875,7.7939300537109375,-3.9259033203125,4,1,1,4,92.90261247870512
1509247156224.0,14.695938110351562,-6.4603424072265625,6.010833740234375,4,1,1,4,293.8367432146333
1509247156224.0,1.6052398681640625,8.311080932617188,-4.998504638671875,4,1,1,4,96.63590992568061
1509247156224.0,13.70074462890625,-6.7452545166015625,6.211944580078125,4,1,1,4,271.79711734619923
1509247156224.0,3.1223602294921875,6.418060302734375,-8.198745727539062,4,1,1,4,118.1600629570894
1509247156224.0,11.691207885742188,-5.976715087890625,4.667694091796875,4,1,1,4,194.1928332040552
1509247156224.0,7.5644073486328125,-2.323974609375,-0.6657867431640625,4,1,1,4,63.06438850844279
1509247156224.0,7.399200439453125,1.2841033935546875,-2.473419189453125,4,1,1,4,62.51489115529694
1509247156224.0,14.1348876953125,-5.4651641845703125,-1.01055908203125,4,1,1,4,230.68429938168265
1509247156224.0,2.2077789306640625,6.4124755859375,-2.90277099609375,4,1,1,4,54.42021040269174
1509247156224.0,15.201904296875,-6.809906005859375,2.4945526123046875,4,1,1,4,283.6955067955423
1509247156224.0,1.3562469482421875,8.125930786132812,-5.49969482421875,4,1,1,4,98.11680008517578
1509247156224.0,16.378265380859375,-8.010986328125,6.4362030029296875,4,1,1,4,373.8481879301835
1509247156224.0,-2.776947021484375,10.953475952148438,-7.9489593505859375,4,1,1,4,190.87602495169267
1509247156224.0,16.728622436523438,-7.6957550048828125,7.404266357421875,4,1,1,4,393.8946140105836
1509247156224.0,-1.6325225830078125,8.742828369140625,-6.9609527587890625,4,1,1,4,127.55704118637368
1509247156224.0,13.357574462890625,-4.9695587158203125,4.451416015625,4,1,1,4,222.93641390581615
1509247156224.0,6.447113037109375,2.9536590576171875,-2.1589813232421875,5,1,1,4,54.95056869601831
1509247156224.0,7.9019927978515625,1.7334136962890625,-3.1429901123046875,5,1,1,4,75.3246000658255
1509247156224.0,14.079833984375,-5.295166015625,4.889556884765625,5,1,1,4,250.18827468995005
1509247156224.0,5.4455413818359375,6.321502685546875,-5.855621337890625,5,1,1,4,103.903618397424
1509247156224.0,15.746994018554688,-6.547332763671875,5.8264923095703125,5,1,1,4,324.7833995721303
1509247156224.0,4.2364654541015625,8.058883666992188,-4.291412353515625,5,1,1,4,101.30946548981592
1509247156224.0,14.770156860351562,-5.105224609375,5.5846710205078125,5,1,1,4,275.4094023988582
1509247156224.0,2.7512664794921875,7.2536468505859375,-5.9944915771484375,5,1,1,4,96.11878914269619
1509247156224.0,13.892288208007812,-2.8083953857421875,4.2910003662109375,5,1,1,4,219.29544043983333
1509247156224.0,4.195770263671875,5.2369232177734375,-3.13421630859375,5,1,1,4,54.85316476342268
1509247156224.0,12.08306884765625,-0.50677490234375,3.947036743164064,5,1,1,4,161.83647263073362
1509247156224.0,6.3657073974609375,3.051010131835937,-4.822921752929688,5,1,1,4,73.09146772953682
1509247156224.0,7.5596160888671875,4.2648773193359375,-4.6593170166015625,5,1,1,4,97.04620902123861
1509247156224.0,9.153350830078123,3.10687255859375,-8.404647827148438,5,1,1,4,164.0745936122257
1509247156224.0,3.6131744384765625,7.0756683349609375,-9.7701416015625,5,1,1,4,158.57577882381156
1509247156224.0,12.419845581054688,-1.6679534912109375,6.2135467529296875,5,1,1,4,195.64279635692947
1509247156224.0,4.51898193359375,5.8346710205078125,-5.1517333984375,5,1,1,4,81.00494064227678
1509247156224.0,12.979293823242188,-3.9017486572265625,9.348358154296877,5,1,1,4,271.07751091523096
1509247156224.0,6.98101806640625,6.047760009765625,-7.6528778076171875,5,1,1,4,143.87655311753042
1509247156224.0,13.265792846679688,-3.821136474609375,3.529647827148437,5,1,1,4,203.04075759230182
1509247156224.0,4.833419799804688,3.644775390625,-3.856460571289064,5,1,1,4,51.51862274715678
1509247156224.0,9.407943725585938,0.945709228515625,-2.716827392578125,5,1,1,4,96.78492216975428
1509247156224.0,12.185226440429688,-1.6041107177734375,5.630157470703125,5,1,1,4,182.75158774433658
1509247156224.0,7.0943450927734375,5.0206451416015625,-9.27215576171875,5,1,1,4,161.50948240282014
1509247156224.0,14.50201416015625,-6.3119049072265625,7.0970001220703125,5,1,1,4,300.5159689919092
1509247156224.0,3.0848541259765625,8.337417602539062,-7.5387420654296875,5,1,1,4,135.8614891867619
1509247156224.0,14.954513549804688,-5.15631103515625,6.56390380859375,5,1,1,4,293.30985221103765
1509247156224.0,3.875747680664064,7.770782470703125,-5.854034423828125,5,1,1,4,109.67619932652453
1509247156224.0,13.208343505859375,-3.735748291015625,4.4865264892578125,5,1,1,4,208.54507340141572
1509247156224.0,4.635498046875,5.8282928466796875,-4.8380889892578125,5,1,1,4,78.86394471721724
1509247156224.0,12.077468872070312,-0.5474700927734375,0.8944244384765625,5,1,1,4,146.96497293445282
1509247156224.0,6.300262451171875,4.069351196289063,-3.690460205078125,5,1,1,4,69.87242263765074
1509247156224.0,10.395156860351562,0.786102294921875,-0.91558837890625,5,1,1,4,109.51554504898377
1509247156224.0,9.765472412109377,-0.2138824462890625,-2.28985595703125,5,1,1,4,100.65363743645142
1509247156224.0,5.7990875244140625,5.051773071289063,-6.849212646484375,5,1,1,4,106.06154115637766
1509247156224.0,13.683990478515625,-2.9791717529296875,2.9638214111328125,5,1,1,4,204.91129710664973
1509247156224.0,5.898040771484375,5.901702880859375,-5.4071044921875,5,1,1,4,98.85376082547009
1509247156224.0,14.457321166992188,-4.461196899414063,5.366790771484375,5,1,1,4,257.71885628579184
1509247156224.0,2.961944580078125,7.62713623046875,-3.4845733642578125,5,1,1,4,79.08857430447824
1509247156224.0,13.779754638671875,-4.0821075439453125,6.9581451416015625,5,1,1,4,254.96102371392772
1509247156224.0,4.4423675537109375,9.384475708007812,-18.15223693847656,5,1,1,4,437.3067196670453
1509247156224.0,11.213973999023438,-1.082977294921875,2.40277099609375,5,1,1,4,132.69936113175936
1509247156224.0,8.136627197265625,3.81317138671875,-14.743698120117188,5,1,1,4,298.12161242892034
1509247156224.0,7.958648681640625,2.320785522460937,-3.741546630859375,5,1,1,4,82.72530546993949
1509247156224.0,11.45098876953125,-2.4237213134765625,-0.01617431640625,5,1,1,4,136.99983041384257
1509247156224.0,4.9220123291015625,6.091644287109375,-6.1876220703125,5,1,1,4,99.62100237351842
1509247156224.0,13.67919921875,-4.24652099609375,4.5719146728515625,5,1,1,4,226.05583561235107
1509247156224.0,6.6569976806640625,4.635986328125,-5.266647338867188,5,1,1,4,93.54556154692547
1509247156224.0,11.955368041992188,-2.60089111328125,2.05401611328125,5,1,1,4,153.9144417962525
1509247156224.0,9.048019409179688,1.044677734375,0.22406005859375,5,1,1,4,83.00820970744826
1509251612672.0,-0.9289502501487732,0.4405331015586853,11.061211585998537,6,1,1,4,123.40741973104866
1509251612672.0,0.6607996821403503,1.2832920551300049,7.134721279144287,6,1,1,4,52.98774244975087
1509251612672.0,-0.0957680642604828,3.0166940689086914,8.418013572692871,6,1,1,4,79.97256713756248
1509251612672.0,0.8427590131759644,1.6663644313812256,12.469002723693848,6,1,1,4,158.96304209594638
1509251612672.0,1.5322890281677246,1.168370485305786,9.84495735168457,6,1,1,4,100.63618451326494
1509251612672.0,0.4118026793003082,1.838746905326844,7.603984832763673,6,1,1,4,61.37115696542794
1509251612672.0,-0.2968810200691223,3.658340215682984,8.705317497253418,6,1,1,4,89.25414420174721
1509251612672.0,-0.009576806798577309,5.008669853210449,8.159439086914062,6,1,1,4,91.66331162674862
1509251612672.0,-0.871489405632019,2.815581083297728,11.30063247680664,6,1,1,4,136.39128499660984
1509251612672.0,0.2585737705230713,2.7964274883270264,6.617573261260986,6,1,1,4,51.679142960429886
1509251612672.0,-0.038307227194309235,4.1180267333984375,8.686163902282715,6,1,1,4,92.4090549579588
1509251612672.0,0.363918662071228,5.372588634490967,9.567230224609377,6,1,1,4,120.5290395987444
1509251612672.0,1.273715257644653,2.786850690841675,8.89685344696045,6,1,1,4,88.54288858729353
1509251612672.0,0.2777273952960968,2.537853717803955,7.65186882019043,6,1,1,4,65.06893044047179
1509251612672.0,-0.5746083855628967,4.0988731384277335,9.002198219299316,6,1,1,4,98.1705085812394
1509251612672.0,-0.3926490843296051,5.027823448181152,9.14585018157959,6,1,1,4,109.0797574734045
1509251612672.0,-1.0821791887283323,3.1028854846954346,9.184157371520996,6,1,1,4,95.14775675251379
1509251612672.0,0.0,3.1507694721221924,6.847416877746582,6,1,1,4,56.81446616410591
1509251612672.0,0.0,4.0509891510009775,9.174580574035645,6,1,1,4,100.58344181099983
1509251612672.0,1.5131354331970217,4.242525577545166,10.074800491333008,6,1,1,4,121.7902070554851
1509251612672.0,0.4501099288463593,3.6104562282562256,7.048529624938965,6,1,1,4,62.91976299784247
1509251612672.0,-0.4788403511047363,3.8402996063232417,8.47547435760498,6,1,1,4,86.81085473459211
1509251612672.0,1.4652514457702637,4.0988731384277335,7.7189064025878915,6,1,1,4,78.5292388561686
1509251612672.0,0.13407529890537262,4.0988731384277335,11.444284439086914,6,1,1,4,147.79038351342786
1509251612672.0,0.2298433631658554,2.82515811920166,8.159439086914062,6,1,1,4,74.61079258314345
1509251612672.0,0.1628057211637497,3.9935283660888663,8.034940719604492,6,1,1,4,80.53504688115841
1509251612672.0,1.4269442558288574,5.726930618286133,6.828263282775879,6,1,1,4,81.45908367481138
1509251612672.0,1.656787633895874,4.797980308532715,11.473014831542967,6,1,1,4,157.39562962970288
1509251612672.0,0.7182605266571045,2.3558945655822754,8.169015884399414,6,1,1,4,72.79895790786378
1509251612672.0,1.599326729774475,3.4093432426452637,6.1291561126708975,6,1,1,4,51.74802198823306
1509251612672.0,1.8100165128707888,3.4380736351013184,11.425130844116213,6,1,1,4,145.63012490241937
1509251612672.0,1.838746905326844,2.2122423648834237,10.132261276245117,6,1,1,4,110.93772503293039
1509251612672.0,1.7142484188079834,2.5091233253479004,5.07570743560791,6,1,1,4,34.997153475076004
1509251612672.0,2.6240451335906982,2.8634653091430664,10.046070098876953,6,1,1,4,116.00857087133642
1509251612672.0,3.2178070545196533,4.520252704620361,8.178592681884767,6,1,1,4,97.67634500992321
1509251612672.0,2.815581083297728,2.240972757339477,11.616666793823242,6,1,1,4,147.89640313447728
1509251612672.0,0.7278373241424559,0.9002198576927185,7.996633529663086,6,1,1,4,65.28629077033105
1509251612672.0,2.786850690841675,2.4133553504943848,7.738059997558594,6,1,1,4,73.4683933466211
1509251612672.0,2.8634653091430664,1.7334020137786863,12.239158630371096,6,1,1,4,161.0011200974251
1509251612672.0,1.1300631761550903,1.359906554222107,9.02135181427002,6,1,1,4,84.51117717515095
1509251612672.0,1.5705963373184204,2.097320795059204,6.904877662658691,6,1,1,4,54.54286290846876
1509251612672.0,2.6431987285614014,2.652775526046753,9.2033109664917,6,1,1,4,98.72465025620761
1509251612672.0,2.5282769203186035,3.2848446369171143,11.09951877593994,6,1,1,4,140.3817055319421
1509251612672.0,2.030282974243164,2.2218191623687744,7.929595947265625,6,1,1,4,71.93702123266218
1509251612672.0,1.0534487962722778,2.3080103397369385,7.929595947265625,6,1,1,4,69.31515798159155
1509251612672.0,1.5610195398330688,2.82515811920166,9.96945571899414,6,1,1,4,109.80834773521669
1509251612672.0,-0.047884032130241394,2.4229321479797363,11.760318756103516,6,1,1,4,144.1779903194069
1509251612672.0,-0.5746083855628967,1.0247182846069336,9.117119789123537,6,1,1,4,84.50209560879497
1509251612672.0,0.5554547905921936,2.815581083297728,7.0772600173950195,6,1,1,4,58.32363621483398
1509251612672.0,1.072602391242981,2.806004285812378,9.720458984375,6,1,1,4,103.51145880861425
1509323177984.0,-3.093308687210083,5.851428985595702,6.655880928039551,7,1,1,4,88.10853073607956
1509323177984.0,-3.1220390796661377,5.449203014373778,7.51779317855835,7,1,1,4,95.9581557824013
1509323177984.0,-2.82515811920166,5.822698593139648,7.163451671600343,7,1,1,4,93.20037715639525
1509323177984.0,-3.00711727142334,5.679046630859375,7.105990409851074,7,1,1,4,91.78942462446321
1509323177984.0,-2.4899697303771973,6.291962146759032,6.732495307922362,7,1,1,4,91.11522998563984
1509323177984.0,-3.0837318897247314,6.215347766876223,6.368576526641848,7,1,1,4,88.69871720661207
1509323177984.0,-2.19308876991272,6.167463779449463,7.690176010131836,7,1,1,4,101.98605489034554
1509323177984.0,-1.5897499322891235,6.5888428688049325,6.5888428688049325,7,1,1,4,89.3530055468165
1509323177984.0,-2.547430515289306,6.3973069190979,6.617573261260986,7,1,1,4,91.20721391552138
1509323177984.0,-1.7908629179000854,6.224924564361572,7.115567684173584,7,1,1,4,92.58817929075714
1509323177984.0,-2.164358377456665,6.215347766876223,6.789956092834473,7,1,1,4,89.41849879190008
1509323177984.0,-2.154781579971313,6.493074893951416,6.387730121612549,7,1,1,4,87.60620134240213
1509323177984.0,-2.298433542251587,6.761225700378418,6.7708024978637695,7,1,1,4,96.84073618468307
1509323177984.0,-2.19308876991272,6.426037311553955,6.952761650085449,7,1,1,4,94.44448844509981
1509323177984.0,-2.164358377456665,6.71334171295166,6.45476770401001,7,1,1,4,91.41743025365423
1509323177984.0,-2.2601263523101807,6.7708024978637695,6.57926607131958,7,1,1,4,94.23867963070217
1509323177984.0,-2.652775526046753,6.435614109039308,6.675034523010254,7,1,1,4,93.01043283543717
1509323177984.0,-2.0590133666992188,7.086836814880371,5.717353820800781,7,1,1,4,87.1509267972151
1509323177984.0,-2.346317768096924,6.847416877746582,6.234501361846924,7,1,1,4,91.26133219740723
1509323177984.0,-2.2122423648834237,6.320692539215088,7.259219646453857,7,1,1,4,97.54144033173594
1509323177984.0,-2.269703149795532,6.646304130554199,6.311115741729736,7,1,1,4,89.15509288952245
1509323177984.0,-2.3750481605529785,6.186617374420166,7.096413612365723,7,1,1,4,94.27417446019308
1509323177984.0,0.05746084079146385,6.751648902893066,6.780379295349121,7,1,1,4,91.56160804496065
1509323177984.0,0.10534487664699554,6.89530086517334,6.445190906524657,7,1,1,4,89.09675738584411
1509323177984.0,-0.1915361285209656,6.560112476348878,7.287950038909912,7,1,1,4,96.18597756052401
1509323177984.0,0.5363011956214905,7.086836814880371,6.2632317543029785,7,1,1,4,89.73894702127797
1509323177984.0,-0.0957680642604828,6.856993675231934,6.45476770401001,7,1,1,4,88.69155989703359
1509323177984.0,-0.1628057211637497,6.598419666290282,7.125144481658936,7,1,1,4,94.3333316798448
1509323177984.0,0.14365209639072418,6.9240312576293945,6.646304130554199,7,1,1,4,92.13620337724817
1509323177984.0,-0.7182605266571045,6.5696892738342285,6.914454460144043,7,1,1,4,91.4863958202921
1509323177984.0,-0.3064578175544739,6.655880928039551,6.703764915466309,7,1,1,4,89.33513136401788
1509323177984.0,0.3830722570419312,6.809109687805176,7.038952827453612,7,1,1,4,96.0575760017947
1509323177984.0,-0.4596867263317108,6.27280855178833,7.307103633880615,7,1,1,4,92.95320253002566
1509323177984.0,0.6320692300796509,6.837840080261231,6.722918510437013,7,1,1,4,92.35320177281703
1509323177984.0,0.4788403511047363,6.627150535583496,6.703764915466309,7,1,1,4,89.08887634496773
1509323177984.0,-0.06703764945268631,6.607996463775635,7.546523571014402,7,1,1,4,100.6201293195914
1509323177984.0,1.0342950820922852,7.15387487411499,6.205770969390869,7,1,1,4,90.75928535586854
1509323177984.0,-0.2585737705230713,6.703764915466309,6.703764915466309,7,1,1,4,89.94778847847653
1509323177984.0,0.4118026793003082,6.943184852600098,6.33026933670044,7,1,1,4,88.4497072192242
1509323177984.0,0.2394201755523681,7.46033239364624,6.387730121612549,7,1,1,4,96.51697755070523
1509323177984.0,-1.0342950820922852,6.991068840026856,6.167463779449463,7,1,1,4,87.9824193136558
1509323177984.0,-0.5171475410461426,6.742072105407715,5.870582580566406,7,1,1,4,80.18671768897661
1509323177984.0,-0.3447650372982025,7.048529624938965,6.167463779449463,7,1,1,4,87.83824227540651
1509323177984.0,-1.838746905326844,6.368576526641848,6.818686485290527,7,1,1,4,90.43424254222629
1509323177984.0,-0.6033388376235962,6.732495307922362,6.301538944244385,7,1,1,4,85.39990389001025
1509323177984.0,-1.2832920551300049,6.33026933670044,7.125144481658936,7,1,1,4,92.48683225844442
1509323177984.0,-1.0534487962722778,6.234501361846924,6.426037311553955,7,1,1,4,81.27271712672224
1509323177984.0,-0.5841852426528931,6.828263282775879,7.450755596160889,7,1,1,4,102.48021081036144
1509323177984.0,-0.06703764945268631,6.464344501495361,6.703764915466309,7,1,1,4,86.73270792229445
1509323177984.0,0.7852981686592102,6.971915245056152,6.540958881378174,7,1,1,4,92.0084384858259
1509323177984.0,0.9576807022094728,7.27837324142456,6.004657745361327,8,1,1,4,89.94778400779725
1509323177984.0,1.37906014919281,7.316680431365968,6.2823853492736825,8,1,1,4,94.90398510659399
1509323177984.0,0.7565677165985107,6.991068840026856,6.33026933670044,8,1,1,4,89.51974811096338
1509323177984.0,1.1204863786697388,6.406883716583253,7.58483076095581,8,1,1,4,99.83330635494555
1509323177984.0,0.6991068720817566,6.799532890319824,5.947196960449219,8,1,1,4,82.09154963150942
1509323177984.0,0.6512228846549988,6.71334171295166,6.2632317543029785,8,1,1,4,84.72112020846427
1509323177984.0,0.4788403511047363,6.646304130554199,7.1730284690856925,8,1,1,4,95.85498409598175
1509323177984.0,0.8810662031173706,7.3454108238220215,5.2480902671813965,8,1,1,4,82.27378927748147
1509323177984.0,1.168370485305786,6.866570472717285,6.387730121612549,8,1,1,4,89.31797575428283
1509323177984.0,1.3024457693099976,6.914454460144043,6.6846113204956055,8,1,1,4,94.19007396949736
1509323177984.0,1.781286120414734,7.115567684173584,6.349422931671143,8,1,1,4,94.11945527606896
1509323177984.0,1.9632453918457031,6.780379295349121,7.4316020011901855,8,1,1,4,105.0565841614964
1509323177984.0,2.078166961669922,7.422025203704834,5.602431774139403,8,1,1,4,90.79247782889296
1509323177984.0,2.5282769203186035,7.556100368499756,4.845864295959473,8,1,1,4,86.96923773951266
1509323177984.0,1.158793568611145,8.753201484680176,3.562572240829468,8,1,1,4,90.65325973719048
1509323177984.0,1.0630255937576294,7.8338279724121085,5.832275390625,8,1,1,4,96.51432034642016
1509323177984.0,1.5610195398330688,7.422025203704834,7.010222434997559,8,1,1,4,106.66645871631353
1509323177984.0,1.6184803247451782,7.2113356590271,6.45476770401001,8,1,1,4,96.28686666147372
1509323177984.0,1.235408067703247,7.134721279144287,6.2823853492736825,8,1,1,4,91.89884650158918
1509323177984.0,1.8770540952682493,7.565677165985107,4.654327869415283,8,1,1,4,82.42557097248756
1509323177984.0,1.292868971824646,6.6846113204956055,7.565677165985107,8,1,1,4,103.59500966431337
1509323177984.0,1.6663644313812256,7.603984832763673,5.343858242034912,8,1,1,4,89.15417666603692
1509323177984.0,1.4460978507995603,7.182605266571045,6.943184852600098,8,1,1,4,101.88883330683666
1509323177984.0,1.7621324062347412,8.015787124633789,4.970362663269043,8,1,1,4,92.0624588489664
1509323177984.0,2.106897592544556,7.7763671875,5.803544998168945,8,1,1,4,98.59203864606849
1509323177984.0,1.321599364280701,7.8338279724121085,3.9935283660888663,8,1,1,4,79.06375439176998
1509323177984.0,1.7525556087493896,6.885724067687987,7.2113356590271,8,1,1,4,102.48800908525236
1509323177984.0,1.4173674583435059,7.33583402633667,5.95677375793457,8,1,1,4,91.30654497714795
1509323177984.0,0.871489405632019,6.694188117980957,7.27837324142456,8,1,1,4,98.54636538453133
1509323177984.0,1.1875240802764893,7.747636795043945,4.721365928649902,8,1,1,4,83.7273855813715
1509323177984.0,1.1013327836990356,6.933608055114746,7.010222434997559,8,1,1,4,98.43107315054546
1509323177984.0,1.7621324062347412,7.824251174926758,4.922478675842285,8,1,1,4,88.5548133795674
1509323177984.0,1.072602391242981,7.2113356590271,6.655880928039551,8,1,1,4,97.4545888050966
1509323177984.0,1.2545616626739502,7.671022415161133,5.458779811859131,8,1,1,4,90.21678689371657
1509323177984.0,0.4022258818149567,7.163451671600343,6.1291561126708975,8,1,1,4,89.04338016484658
1509323177984.0,1.6089035272598269,7.46033239364624,6.818686485290527,8,1,1,4,104.73961536840024
1509323177984.0,0.3926490843296051,7.326257228851317,5.7556610107421875,8,1,1,4,86.95585195729882
1509323177984.0,0.7278373241424559,7.7763671875,5.57370138168335,8,1,1,4,92.06778089742039
1509323177984.0,1.1875240802764893,7.824251174926758,5.506663799285889,8,1,1,4,92.95246608794497
1509323177984.0,1.072602391242981,7.565677165985107,5.784391403198242,8,1,1,4,91.84913077500234
1509323177984.0,1.1971008777618408,7.690176010131836,5.200206279754639,8,1,1,4,87.61400293034495
1509323177984.0,0.8140285611152649,7.230489253997803,6.598419666290282,8,1,1,4,96.48175944297545
1509323177984.0,1.2449848651885986,7.536946773529053,6.224924564361572,8,1,1,4,97.10523981355078
1509323177984.0,1.0438719987869265,7.6135616302490225,4.903325080871582,8,1,1,4,83.09858629615587
1509323177984.0,1.2258312702178955,7.33583402633667,5.851428985595702,8,1,1,4,89.55634433847246
1509323177984.0,1.2832920551300049,6.732495307922362,7.441178798675537,8,1,1,4,102.34447348381472
1509323177984.0,1.7142484188079834,8.101978302001951,4.76924991607666,8,1,1,4,91.32644480949332
1509323177984.0,0.8140285611152649,7.489062786102295,5.631162166595459,8,1,1,4,88.45869125898972
1509323177984.0,1.455674648284912,7.4316020011901855,6.473921298980713,8,1,1,4,99.2593539711495
1509323177984.0,1.2641384601593018,7.450755596160889,6.177040576934815,8,1,1,4,95.26763528927593
1509323309056.0,0.9959878921508788,6.512228488922119,6.876147270202638,9,1,1,4,90.6825130547552
1509323309056.0,0.9959878921508788,6.5888428688049325,6.665457725524902,9,1,1,4,88.83316892187237
1509323309056.0,1.436521053314209,6.5888428688049325,6.665457725524902,9,1,1,4,89.90476977717618
1509323309056.0,1.8770540952682493,6.971915245056152,6.378153324127197,9,1,1,4,92.81177408688451
1509323309056.0,1.7525556087493896,6.665457725524902,6.866570472717285,9,1,1,4,94.64956790931143
1509323309056.0,1.9632453918457031,7.259219646453857,5.181052684783936,9,1,1,4,83.3939092665719
1509323309056.0,1.9823989868164065,7.402871608734131,6.004657745361327,9,1,1,4,94.78832843726035
1509323309056.0,1.829170107841492,7.115567684173584,7.326257228851317,9,1,1,4,107.65121173477245
1509323309056.0,1.9536685943603518,7.412448406219482,5.544970989227295,9,1,1,4,89.50791562282802
1509323309056.0,1.972822189331055,6.971915245056152,5.525817394256592,9,1,1,4,83.03428744963207
1509323309056.0,1.5705963373184204,6.751648902893066,6.722918510437013,9,1,1,4,93.24916906071181
1509323309056.0,1.3311761617660522,6.904877662658691,7.374141216278076,9,1,1,4,103.82732418754826
1509323309056.0,1.9249382019042969,7.4986395835876465,5.8418521881103525,9,1,1,4,94.06221967342776
1509323309056.0,1.5897499322891235,6.512228488922119,8.178592681884767,9,1,1,4,111.82580299532121
1509323309056.0,1.580173134803772,7.0772600173950195,5.161899089813232,9,1,1,4,79.22975870318841
1509323309056.0,1.8770540952682493,7.201758861541747,5.70777702331543,9,1,1,4,87.96738132424593
1509323309056.0,1.6663644313812256,7.1730284690856925,5.95677375793457,9,1,1,4,89.71226143970425
1509323309056.0,1.8004397153854368,7.3454108238220215,5.95677375793457,9,1,1,4,92.67979694267684
1509323309056.0,1.6950948238372805,7.27837324142456,5.679046630859375,9,1,1,4,88.09963413876021
1509323309056.0,1.4173674583435059,6.991068840026856,6.196194171905518,9,1,1,4,89.27679625392149
1509323309056.0,1.4939818382263184,6.914454460144043,7.422025203704834,9,1,1,4,105.12812033878572
1509323309056.0,1.7908629179000854,7.58483076095581,5.544970989227295,9,1,1,4,91.48355093442342
1509323309056.0,1.915361404418945,7.134721279144287,6.301538944244385,9,1,1,4,94.28225010644064
1509323309056.0,2.106897592544556,7.603984832763673,4.367023944854736,9,1,1,4,81.33050093730465
1509323309056.0,1.944091796875,6.962338447570801,5.9759273529052725,9,1,1,4,87.96535730040068
1509323309056.0,2.011129379272461,6.646304130554199,7.230489253997803,9,1,1,4,100.49797482817235
1509323309056.0,1.9249382019042969,6.837840080261231,5.880159378051758,9,1,1,4,85.03771835566751
1509323309056.0,1.8483237028121948,6.512228488922119,7.6997528076171875,9,1,1,4,105.11161370071501
1509323309056.0,2.164358377456665,7.15387487411499,5.056553840637207,9,1,1,4,81.4311096438235
1509323309056.0,1.8770540952682493,6.291962146759032,7.364564418792725,9,1,1,4,97.34892881135966
1509323309056.0,2.0207061767578125,6.6846113204956055,7.240066051483152,9,1,1,4,101.18583838872402
1509323309056.0,1.781286120414734,6.856993675231934,6.531382083892822,9,1,1,4,92.85029443074906
1509323309056.0,1.599326729774475,6.818686485290527,7.058106422424316,9,1,1,4,98.86919764352218
1509323309056.0,2.547430515289306,7.565677165985107,4.76924991607666,9,1,1,4,86.47461797213282
1509323309056.0,1.838746905326844,6.809109687805176,6.751648902893066,9,1,1,4,95.32972783034849
1509323309056.0,2.2218191623687744,6.560112476348878,6.952761650085449,9,1,1,4,96.31245065551623
1509323309056.0,2.499546527862549,7.489062786102295,4.38617753982544,9,1,1,4,81.57234767000114
1509323309056.0,2.547430515289306,6.943184852600098,6.962338447570801,9,1,1,4,103.17137478612517
1509323309056.0,2.719813108444214,7.642292022705077,5.305551052093506,9,1,1,4,93.95088267153714
1509323309056.0,2.729389905929565,7.536946773529053,5.65031623840332,9,1,1,4,96.18120951956445
1509323309056.0,1.5610195398330688,7.527369976043701,5.9950809478759775,9,1,1,4,95.03907633157033
1509323309056.0,1.37906014919281,7.182605266571045,5.774814605712892,9,1,1,4,86.84010904082075
1509323309056.0,2.1164743900299072,7.3454108238220215,6.962338447570801,9,1,1,4,106.90868067289676
1509323309056.0,2.0590133666992188,7.393294811248777,4.999093055725098,9,1,1,4,83.89127559008303
1509323309056.0,2.844311714172364,6.167463779449463,6.971915245056152,9,1,1,4,94.73532078244557
1509323309056.0,3.0837318897247314,6.033388137817383,7.230489253997803,9,1,1,4,98.19114964143847
1509323309056.0,3.160346269607544,6.828263282775879,5.535394191741943,9,1,1,4,87.25355686069798
1509323309056.0,3.399766445159912,6.665457725524902,6.617573261260986,9,1,1,4,99.77901444055124
1509323309056.0,3.25611424446106,7.125144481658936,4.750096321105957,9,1,1,4,83.93337891728136
1509323309056.0,3.2369606494903564,6.646304130554199,6.320692539215088,9,1,1,4,94.60242701746012
1509323309056.0,3.1699230670928955,7.1921820640563965,5.228936672210693,10,1,1,4,89.117673815812
1509323309056.0,2.978386878967285,7.230489253997803,5.420472621917725,10,1,1,4,90.5322866979418
1509323309056.0,3.0837318897247314,6.646304130554199,6.378153324127197,10,1,1,4,94.36360078960189
1509323309056.0,3.0837318897247314,7.565677165985107,4.38617753982544,10,1,1,4,85.98742675848285
1509323309056.0,3.07415509223938,6.655880928039551,7.2113356590271,10,1,1,4,105.75454244653776
1509323309056.0,2.7772738933563232,7.316680431365968,4.702212333679199,10,1,1,4,83.35786364445705
1509323309056.0,2.815581083297728,7.0772600173950195,5.458779811859131,10,1,1,4,87.81338322480298
1509323309056.0,2.9879636764526367,6.320692539215088,7.15387487411499,10,1,1,4,100.0570068215834
1509323309056.0,2.595314741134644,6.9240312576293945,5.343858242034912,10,1,1,4,83.23468837314414
1509323309056.0,2.9017724990844727,6.320692539215088,7.824251174926758,10,1,1,4,109.59034426007497
1509323309056.0,2.6431987285614014,7.2113356590271,5.736507415771484,10,1,1,4,91.89737883702566
1509323309056.0,2.9688100814819336,6.607996463775635,7.51779317855835,10,1,1,4,108.99666484075851
1509323309056.0,2.7006595134735107,7.489062786102295,4.63517427444458,10,1,1,4,84.86446377637009
1509323309056.0,2.738966703414917,5.8418521881103525,7.6805992126464835,10,1,1,4,100.62077985545108
1509323309056.0,2.8347349166870117,6.943184852600098,5.793968200683594,10,1,1,4,89.81360545579264
1509323309056.0,2.8634653091430664,7.0772600173950195,5.9280433654785165,10,1,1,4,93.4287410734778
1509323309056.0,2.786850690841675,7.105990409851074,5.679046630859375,10,1,1,4,90.51320711341538
1509323309056.0,2.882618904113768,6.971915245056152,6.110002517700195,10,1,1,4,94.24922469690318
1509323309056.0,3.1411926746368413,7.249642848968506,5.592854976654053,10,1,1,4,93.70443964667635
1509323309056.0,3.026270866394043,6.847416877746582,6.244078159332275,10,1,1,4,95.03394531428444
1509323309056.0,3.1316158771514893,6.971915245056152,5.669469833374023,10,1,1,4,90.55750837781176
1509323309056.0,2.9688100814819336,6.732495307922362,6.828263282775879,10,1,1,4,100.76550583001061
1509323309056.0,3.160346269607544,7.125144481658936,5.535394191741943,10,1,1,4,91.39606128630756
1509323309056.0,3.1220390796661377,6.426037311553955,6.876147270202638,10,1,1,4,98.32248482596135
1509323309056.0,2.9879636764526367,6.799532890319824,5.477933406829834,10,1,1,4,85.16932886800373
1509323309056.0,3.1699230670928955,5.870582580566406,7.728483200073242,10,1,1,4,104.2416046603517
1509323309056.0,3.00711727142334,6.818686485290527,5.8418521881103525,10,1,1,4,89.66447665650594
1509323309056.0,3.112462282180786,6.550535678863525,6.157886981964111,10,1,1,4,90.51651122070513
1509323309056.0,2.978386878967285,6.378153324127197,6.004657745361327,10,1,1,4,85.60754286580708
1509323309056.0,3.19865345954895,6.742072105407715,5.363011837005615,10,1,1,4,84.44881619266363
1509323309056.0,3.2082302570343018,6.6846113204956055,6.157886981964111,10,1,1,4,92.89634197089146
1509323309056.0,3.1507694721221924,6.799532890319824,5.640739440917969,10,1,1,4,87.97893723332578
1509323309056.0,2.911349296569824,6.646304130554199,6.244078159332275,10,1,1,4,91.63782538230976
1509323309056.0,3.112462282180786,6.885724067687987,5.803544998168945,10,1,1,4,90.78175194010741
1509323309056.0,3.093308687210083,6.6846113204956055,6.215347766876223,10,1,1,4,92.88313500368062
1509323309056.0,2.7772738933563232,7.287950038909912,5.20978307723999,10,1,1,4,87.96930576026176
1509323309056.0,2.9305028915405287,7.27837324142456,5.430049419403076,10,1,1,4,91.04800093597214
1509323309056.0,2.537853717803955,7.1921820640563965,5.564124584197998,10,1,1,4,89.12766672398243
1509323309056.0,2.604891538619995,7.450755596160889,4.5585598945617685,10,1,1,4,83.07968719400384
1509323309056.0,3.160346269607544,6.703764915466309,6.89530086517334,10,1,1,4,102.47342660691953
1509323309056.0,3.0358476638793945,7.402871608734131,5.008669853210449,10,1,1,4,89.10565279214302
1509323309056.0,3.07415509223938,7.316680431365968,6.023811340332031,10,1,1,4,99.27054512978778
1509323309056.0,3.07415509223938,7.4316020011901855,5.602431774139403,10,1,1,4,96.06637961912206
1509323309056.0,3.0550012588500977,7.163451671600343,6.426037311553955,10,1,1,4,101.94202807241301
1509323309056.0,2.547430515289306,7.15387487411499,5.9950809478759775,10,1,1,4,93.60832351630643
1509323309056.0,1.9632453918457031,6.847416877746582,6.789956092834473,10,1,1,4,96.84495410887212
1509323309056.0,1.2641384601593018,7.1921820640563965,6.349422931671143,10,1,1,4,93.64070045421983
1509323309056.0,1.455674648284912,7.603984832763673,5.420472621917725,10,1,1,4,89.321097463519
1509323309056.0,1.4077905416488647,7.575253963470459,5.343858242034912,10,1,1,4,87.92316773119536
1509323309056.0,1.3886369466781616,6.866570472717285,7.048529624938965,10,1,1,4,98.75987250011475
1509323309056.0,1.4077905416488647,7.738059997558594,4.702212333679199,11,1,1,4,83.97024756597729
1509323309056.0,1.3311761617660522,7.029376029968263,6.0429649353027335,11,1,1,4,87.70158255364494
1509323309056.0,1.6663644313812256,7.546523571014402,5.4013190269470215,11,1,1,4,88.90103565690835
1509323309056.0,1.4652514457702637,7.010222434997559,7.096413612365723,11,1,1,4,101.64926654524447
1509323309056.0,1.8100165128707888,7.738059997558594,4.711789131164551,11,1,1,4,85.35468911924183
1509323309056.0,1.6950948238372805,6.904877662658691,6.991068840026856,11,1,1,4,99.42572552407735
1509323309056.0,1.81959331035614,7.374141216278076,5.822698593139648,11,1,1,4,91.59269739925436
1509323309056.0,1.4844050407409668,7.134721279144287,6.090848922729492,11,1,1,4,90.2061466555665
1509323309056.0,1.9345149993896484,7.785943984985352,4.587290287017822,11,1,1,4,85.40650419756116
1509323309056.0,1.656787633895874,7.4316020011901855,5.525817394256592,11,1,1,4,88.50831144259297
1509323309056.0,1.7334020137786863,7.393294811248777,5.9280433654785165,11,1,1,4,92.80718885040395
1509323309056.0,1.4460978507995603,8.08282470703125,4.089296340942384,11,1,1,4,84.14559880272668
1509323309056.0,1.2641384601593018,6.876147270202638,6.253654956817628,11,1,1,4,87.98764764689881
1509323309056.0,1.50355863571167,7.623138427734375,4.587290287017822,11,1,1,4,81.41616023679171
1509323309056.0,1.6759412288665771,8.063671112060549,4.960785865783691,11,1,1,4,92.44096721225387
1509323309056.0,1.9345149993896484,7.556100368499756,6.876147270202638,11,1,1,4,108.11840234322086
1509323309056.0,1.8866308927536009,8.130708694458008,4.6255974769592285,11,1,1,4,91.06395201847887
1509323309056.0,1.599326729774475,7.1921820640563965,5.497087001800537,11,1,1,4,84.50329433647006
1509323309056.0,1.723825216293335,7.038952827453612,7.0772600173950195,11,1,1,4,102.60603963726412
1509323309056.0,1.455674648284912,7.948749542236327,4.357447147369385,11,1,1,4,84.28895360897921
1509323309056.0,1.4173674583435059,7.096413612365723,6.493074893951416,11,1,1,4,94.52803824820285
1509323309056.0,1.7046716213226318,8.121131896972656,3.878606796264648,11,1,1,4,83.90227930459974
1509323309056.0,1.5418659448623655,7.412448406219482,6.167463779449463,11,1,1,4,95.35935143761311
1509323309056.0,1.5131354331970217,7.489062786102295,5.784391403198242,11,1,1,4,91.83482415877234
1509323309056.0,1.6184803247451782,7.469909191131593,5.95677375793457,11,1,1,4,93.90217548855745
1509323309056.0,1.4460978507995603,7.182605266571045,7.297526836395264,11,1,1,4,106.93491533737028
1509323309056.0,1.6663644313812256,8.293514251708983,4.108449935913087,11,1,1,4,88.43850993737672
1509323309056.0,1.235408067703247,6.962338447570801,6.636727333068848,11,1,1,4,94.046539445772
1509323309056.0,1.9345149993896484,8.101978302001951,3.964797973632813,11,1,1,4,85.10402366069681
1509323309056.0,1.1492167711257937,6.847416877746582,6.617573261260986,11,1,1,4,92.00009295284191
1509323309056.0,1.6280571222305298,7.8721351623535165,3.687070608139038,11,1,1,4,78.21557167701096
1509323309056.0,1.3503297567367554,6.847416877746582,7.412448406219482,11,1,1,4,103.65489972444324
1509323309056.0,2.1356279850006104,8.255207061767576,4.8267107009887695,11,1,1,4,96.00648671401453
1509323309056.0,1.8962076902389529,6.531382083892822,7.987056732177733,11,1,1,4,110.04763077334313
1509323309056.0,1.8004397153854368,7.1921820640563965,5.535394191741943,11,1,1,4,85.60965486924216
1509323309056.0,1.7908629179000854,7.134721279144287,6.5696892738342285,11,1,1,4,97.27225487651641
1509323309056.0,1.742978811264038,6.742072105407715,6.828263282775879,11,1,1,4,95.11869086993744
1509323309056.0,1.7525556087493896,6.5888428688049325,6.751648902893066,11,1,1,4,92.0690644194977
1509323309056.0,1.9823989868164065,6.426037311553955,6.89530086517334,11,1,1,4,92.7690352936745
1509323309056.0,1.81959331035614,6.512228488922119,6.636727333068848,11,1,1,4,89.76618940052482
1509323309056.0,1.81959331035614,6.655880928039551,6.847416877746582,11,1,1,4,94.4987886409822
1509323309056.0,1.8004397153854368,6.521805286407473,6.981492042541504,11,1,1,4,94.51675850262001
1509323309056.0,1.944091796875,7.000645637512207,6.751648902893066,11,1,1,4,98.37329516463251
1509323309056.0,1.7334020137786863,6.502651691436768,6.837840080261231,11,1,1,4,92.04521852474439
1509323309056.0,1.436521053314209,6.732495307922362,6.157886981964111,11,1,1,4,85.30965789045466
1509323309056.0,1.273715257644653,6.100425720214844,7.709329605102539,11,1,1,4,98.27130748552605
1509323309056.0,1.5610195398330688,7.086836814880371,5.305551052093506,11,1,1,4,80.80891001085492
1509323309056.0,1.838746905326844,6.368576526641848,8.283937454223633,11,1,1,4,112.56337690303172
1509323309056.0,1.5131354331970217,7.90086555480957,3.2944214344024663,11,1,1,4,75.56646794182308
1509323309056.0,1.3024457693099976,6.311115741729736,7.661445617675781,11,1,1,4,100.22429584010582
1509323309056.0,1.580173134803772,7.393294811248777,5.669469833374023,12,1,1,4,89.30064349353174
1509323309056.0,1.6855180263519287,6.57926607131958,8.130708694458008,12,1,1,4,112.23613692850932
1509323309056.0,1.1875240802764893,7.048529624938965,6.655880928039551,12,1,1,4,95.39273424311938
1509323309056.0,1.4173674583435059,7.412448406219482,6.0621185302734375,12,1,1,4,93.70260296192146
1509323309056.0,1.3407529592514038,7.565677165985107,5.066130638122559,12,1,1,4,84.70276912017393
1509323309056.0,1.2066776752471924,6.799532890319824,6.0621185302734375,12,1,1,4,84.43899961356561
1509323309056.0,1.5610195398330688,6.904877662658691,6.694188117980957,12,1,1,4,94.92627209894103
1509323309056.0,1.4460978507995603,7.307103633880615,5.698200225830077,12,1,1,4,87.95444832400835
1509323309056.0,1.4173674583435059,7.326257228851317,5.861005783081055,12,1,1,4,90.03436428457687
1509323309056.0,1.599326729774475,6.9240312576293945,7.01979923248291,12,1,1,4,99.77763610956767
1509323309056.0,1.4652514457702637,6.71334171295166,7.2113356590271,12,1,1,4,99.21928074134439
1509323309056.0,1.5610195398330688,7.240066051483152,5.104437828063965,12,1,1,4,80.91062397414984
1509323309056.0,1.7046716213226318,6.138733386993407,8.389283180236816,12,1,1,4,110.97002521133463
1509323309056.0,1.8866308927536009,7.240066051483152,4.9799394607543945,12,1,1,4,80.77772958810985
1509323309056.0,1.7908629179000854,6.253654956817628,8.197746276855469,12,1,1,4,109.518434329337
1509323309056.0,1.723825216293335,7.1730284690856925,5.679046630859375,12,1,1,4,86.67548143011781
1509323309056.0,1.944091796875,6.052541732788086,7.891288757324219,12,1,1,4,102.68519259328968
1509323309056.0,1.436521053314209,6.550535678863525,5.439626216888428,12,1,1,4,74.5626437961389
1509323309056.0,1.829170107841492,5.966350555419923,7.0772600173950195,12,1,1,4,89.03081158739863
1509323309056.0,1.9057846069335933,6.636727333068848,5.966350555419923,12,1,1,4,83.27550361168778
1509323309056.0,1.5131354331970217,5.918466567993164,7.565677165985107,12,1,1,4,94.55729633555757
1509323309056.0,1.742978811264038,6.789956092834473,5.937620162963867,12,1,1,4,84.39681207877044
1509323309056.0,2.030282974243164,6.493074893951416,7.709329605102539,12,1,1,4,105.71583349407433
1509323309056.0,1.3694833517074585,7.163451671600343,5.803544998168945,12,1,1,4,86.87165904772942
1509323309056.0,1.216254472732544,6.540958881378174,7.067683219909668,12,1,1,4,94.21556412731462
1509323309056.0,1.580173134803772,7.441178798675537,5.152322292327881,12,1,1,4,84.41451405383272
1509323309056.0,1.3886369466781616,7.038952827453612,6.464344501495361,12,1,1,4,93.26291931081016
1509323309056.0,1.4939818382263184,7.623138427734375,5.6215853691101065,12,1,1,4,91.94644328354342
1509323309056.0,1.4269442558288574,6.627150535583496,7.805097579956055,12,1,1,4,106.87484236316345
1509323309056.0,1.37906014919281,7.412448406219482,5.918466567993164,12,1,1,4,91.87444478641022
1509323309056.0,1.1109095811843872,6.2823853492736825,7.556100368499756,12,1,1,4,97.79713855317803
1509323309056.0,1.216254472732544,6.837840080261231,6.138733386993407,12,1,1,4,85.91937950225639
1509323309056.0,1.580173134803772,6.943184852600098,6.2823853492736825,12,1,1,4,90.17312871009963
1509323309056.0,1.436521053314209,6.617573261260986,6.531382083892822,12,1,1,4,88.51482053056748
1509323309056.0,1.273715257644653,6.464344501495361,7.01979923248291,12,1,1,4,92.68768165593775
1509323309056.0,1.3982137441635132,6.818686485290527,6.4164605140686035,12,1,1,4,89.62045258765296
1509323309056.0,1.1971008777618408,6.866570472717285,5.9280433654785165,12,1,1,4,83.7245387113249
1509323309056.0,1.522712230682373,6.818686485290527,6.2823853492736825,12,1,1,4,88.28150359892199
1509323309056.0,1.7717092037200928,6.665457725524902,7.259219646453857,12,1,1,4,100.26355006876776
1509323309056.0,1.723825216293335,7.067683219909668,6.224924564361572,12,1,1,4,91.67340530531357
1509323309056.0,1.5897499322891235,6.732495307922362,7.508216381072997,12,1,1,4,104.22711114342279
1509323309056.0,1.3311761617660522,7.201758861541747,6.052541732788086,12,1,1,4,90.27062210059069
1509323309056.0,1.7046716213226318,6.818686485290527,6.837840080261231,12,1,1,4,96.15644768445334
1509323309056.0,1.6663644313812256,7.450755596160889,5.343858242034912,12,1,1,4,86.84735028285974
1509323309056.0,1.656787633895874,7.201758861541747,6.636727333068848,12,1,1,4,98.65642565712851
1509323309056.0,1.7525556087493896,8.35097599029541,4.1180267333984375,12,1,1,4,89.76839532923356
1509323309056.0,1.742978811264038,7.402871608734131,6.540958881378174,12,1,1,4,100.62462627979727
1509323309056.0,1.5131354331970217,8.130708694458008,3.466804027557373,12,1,1,4,80.4167328788194
1509323309056.0,1.742978811264038,7.8338279724121085,5.171475887298584,12,1,1,4,91.15099869077248
1509323309056.0,1.6855180263519287,7.766790390014647,5.228936672210693,12,1,1,4,90.50578270157101
1509425414144.0,3.2747955322265625,2.731781005859375,11.310806274414062,13,1,1,4,146.12125181918964
1509425414144.0,0.02984619140625,1.72064208984375,10.355514526367188,13,1,1,4,110.19818110228516
1509425414144.0,0.65313720703125,1.7318115234375,6.824066162109375,13,1,1,4,49.99363834876567
1509425414144.0,2.7360992431640625,3.845901489257813,6.6405181884765625,13,1,1,4,66.37367914500646
1509425414144.0,2.1750640869140625,4.16192626953125,10.468048095703123,13,1,1,4,131.63256498915138
1509425414144.0,1.47674560546875,4.5872955322265625,9.49200439453125,13,1,1,4,113.32220530905761
1509425414144.0,2.3650054931640625,3.33831787109375,10.789657592773438,13,1,1,4,133.1543281604536
1509425414144.0,2.813507080078125,2.7796783447265625,9.0147705078125,13,1,1,4,96.90852109831758
1509425414144.0,1.2684478759765625,1.9105682373046875,8.381088256835938,13,1,1,4,75.50187137234025
1509425414144.0,1.6738739013671875,3.451644897460937,7.0850372314453125,13,1,1,4,64.9134589068126
1509425414144.0,3.0840606689453125,3.807586669921875,10.131256103515623,13,1,1,4,126.65149669372472
1509425414144.0,4.6235198974609375,4.932861328125,10.8016357421875,13,1,1,4,162.38539183163084
1509425414144.0,2.527801513671875,3.7884368896484375,6.6301422119140625,13,1,1,4,64.70082030957565
1509425414144.0,3.108001708984375,2.2521514892578125,7.3076934814453125,13,1,1,4,68.13424497237429
1509425414144.0,3.888504028320313,4.024658203125,5.91986083984375,13,1,1,4,66.3630895933602
1509425414144.0,3.036163330078125,5.118011474609375,9.76654052734375,13,1,1,4,130.79764309339225
1509425414144.0,4.629119873046875,4.873809814453125,10.44329833984375,13,1,1,4,154.24525312148035
1509425414144.0,3.149505615234375,3.677490234375,7.17681884765625,13,1,1,4,74.95004881639034
1509425414144.0,0.740936279296875,1.6615753173828125,6.5216064453125,13,1,1,4,45.84116973285563
1509425414144.0,0.08172607421875,3.016708374023437,8.515975952148438,13,1,1,4,81.62905498268083
1509425414144.0,3.0633087158203125,3.839508056640625,9.373886108398438,13,1,1,4,111.99542317865416
1509425414144.0,2.98748779296875,2.64080810546875,11.389007568359375,13,1,1,4,145.60844415519387
1509425414144.0,1.6946258544921875,0.004791259765625,10.86627197265625,13,1,1,4,120.94764632661827
1509425414144.0,2.7408905029296875,1.683929443359375,6.4409942626953125,13,1,1,4,51.8345062113367
1509425414144.0,3.332260131835937,2.90496826171875,7.7881317138671875,13,1,1,4,80.19779378036037
1509425414144.0,3.8813323974609375,2.9704132080078125,11.096115112304688,13,1,1,4,147.0118663914036
1509425414144.0,3.552520751953125,2.26092529296875,11.841522216796875,13,1,1,4,157.9538352843374
1509425414144.0,2.0553436279296875,1.705474853515625,8.239837646484375,13,1,1,4,75.02800634526648
1509425414144.0,2.1774444580078125,1.146026611328125,7.669219970703125,13,1,1,4,64.8715763206128
1509425414144.0,-0.610198974609375,3.429306030273437,7.0634918212890625,13,1,1,4,62.02539934730157
1509425414144.0,0.7808380126953125,5.349456787109375,8.674789428710938,13,1,1,4,104.47836755169556
1509425414144.0,2.063323974609375,2.392608642578125,13.931655883789062,13,1,1,4,204.07291760505177
1509425414144.0,0.5166778564453125,2.1938934326171875,9.507965087890623,13,1,1,4,95.4815245135687
1509425414144.0,0.4296875,3.0669708251953125,3.916717529296875,13,1,1,4,24.931617594556883
1509425414144.0,3.455963134765625,4.26727294921875,7.659637451171875,13,1,1,4,88.82334549538791
1509425414144.0,2.25885009765625,4.03582763671875,13.244522094726562,13,1,1,4,196.8076739946846
1509425414144.0,2.3091278076171875,1.2689361572265625,10.472824096679688,13,1,1,4,116.62231476302259
1509425414144.0,0.8837890625,3.3558807373046875,6.022003173828125,13,1,1,4,48.30754085560329
1509425414144.0,0.99072265625,3.742141723632813,6.7578277587890625,13,1,1,4,60.653392078820616
1509425414144.0,1.575714111328125,4.315948486328125,8.567840576171875,13,1,1,4,94.51817843597382
1509425414144.0,2.1710662841796875,4.420501708984375,11.515899658203125,13,1,1,4,156.87030910723843
1509425414144.0,0.9133148193359376,0.9991912841796876,13.641159057617188,13,1,1,4,187.91374761681072
1509425414144.0,-0.0786895751953125,3.9249114990234375,4.70599365234375,13,1,1,4,37.557498580310494
1509425414144.0,2.473541259765625,4.255294799804688,6.199188232421875,13,1,1,4,62.65587493800559
1509425414144.0,3.3593902587890625,6.08447265625,8.316452026367188,13,1,1,4,117.46968472236767
1509425414144.0,2.2708282470703125,3.2457427978515625,14.64752197265625,13,1,1,4,230.24140717694536
1509425414144.0,2.45758056640625,2.659164428710937,6.1808319091796875,13,1,1,4,51.31354078883305
1509425414144.0,3.206161499023437,2.8706512451171875,6.7562408447265625,13,1,1,4,64.16690048086457
1509425414144.0,1.282012939453125,4.060562133789063,7.215118408203125,13,1,1,4,70.18965566367842
1509425414144.0,3.3897247314453125,4.93206787109375,8.66680908203125,13,1,1,4,110.92910690442659
1509425414144.0,3.49505615234375,0.2960968017578125,12.338714599609375,14,1,1,4,164.54696879466064
1509425414144.0,1.323516845703125,2.549835205078125,6.62774658203125,14,1,1,4,52.18038116954267
1509425414144.0,3.561309814453125,3.688674926757813,6.78656005859375,14,1,1,4,72.34664773871191
1509425414144.0,4.7528076171875,6.559326171875,4.739517211914063,14,1,1,4,88.07696347706951
1509425414144.0,4.354583740234375,6.469940185546875,11.807998657226562,14,1,1,4,200.25135784433223
1509425414144.0,2.115997314453125,3.90814208984375,7.8543701171875,14,1,1,4,81.4421491669491
1509425414144.0,5.033737182617188,4.0789337158203125,4.310150146484375,14,1,1,4,60.553604566957816
1509425414144.0,2.897308349609375,4.462799072265625,6.1640625,14,1,1,4,66.30663773603737
1509425414144.0,2.258056640625,6.099639892578125,7.82244873046875,14,1,1,4,103.4951307522133
1509425414144.0,5.339385986328125,5.0094757080078125,11.665145874023438,14,1,1,4,189.67951784236357
1509425414144.0,4.602783203125,3.1076812744140625,8.597381591796875,14,1,1,4,104.75826635328121
1509425414144.0,1.5413970947265625,4.3558502197265625,5.102630615234375,14,1,1,4,47.38617533585057
1509425414144.0,3.8502044677734375,6.016632080078125,4.982925415039063,14,1,1,4,75.85348172252998
1509425414144.0,6.33697509765625,6.6846160888671875,7.3484039306640625,14,1,1,4,138.84038597205654
1509425414144.0,5.526947021484375,4.3079681396484375,11.484786987304688,14,1,1,4,181.0060650142841
1509425414144.0,4.617950439453125,2.7557373046875,6.9892730712890625,14,1,1,4,77.76949241873808
1509425414144.0,2.907684326171875,3.141998291015625,5.6277618408203125,14,1,1,4,49.99848473840393
1509425414144.0,1.819122314453125,4.511474609375,6.020416259765625,14,1,1,4,59.90802108682692
1509425414144.0,3.49267578125,6.481903076171875,6.1864166259765625,14,1,1,4,92.48560227197595
1509425414144.0,4.683380126953125,2.3447265625,12.56536865234375,14,1,1,4,185.32028143573552
1509425414144.0,-1.8759307861328125,2.6535797119140625,9.310043334960938,14,1,1,4,97.23750850069337
1509425414144.0,1.1678924560546875,2.828353881835937,5.5998382568359375,14,1,1,4,40.72174697252922
1509425414144.0,3.37615966796875,4.6703033447265625,6.4713134765625,14,1,1,4,75.08808554732241
1509425414144.0,1.2987823486328125,5.002288818359375,13.754486083984375,14,1,1,4,215.89561644592322
1509425414144.0,1.9635772705078125,0.7988739013671875,13.375396728515625,14,1,1,4,183.39507285272703
1509425414144.0,-0.0794830322265625,3.430892944335937,4.6142120361328125,14,1,1,4,33.06829666229896
1509425414144.0,1.8949432373046875,4.008697509765625,5.8847503662109375,14,1,1,4,54.290752470027655
1509425414144.0,0.9779510498046876,3.9576263427734375,8.936553955078125,14,1,1,4,96.48119111685082
1509425414144.0,3.1949920654296875,4.5322265625,9.235031127929688,14,1,1,4,116.0348518458195
1509425414144.0,2.581268310546875,-0.099761962890625,12.341903686523438,14,1,1,4,158.99548514769413
1509425414144.0,0.7233734130859375,1.28887939453125,6.9908599853515625,14,1,1,4,51.05660252319649
1509425414144.0,3.1678466796875,3.415740966796875,5.369186401367188,14,1,1,4,50.53070155088791
1509425414144.0,2.1591033935546875,4.125213623046875,11.755325317382812,14,1,1,4,159.8667882173322
1509425414144.0,1.17108154296875,1.6863250732421875,14.59405517578125,14,1,1,4,217.20157070667483
1509425414144.0,1.9109039306640625,0.955291748046875,7.6732025146484375,14,1,1,4,63.44217298692092
1509425414144.0,1.9388275146484373,0.46368408203125,6.697174072265625,14,1,1,4,48.826195613713935
1509425414144.0,0.2900238037109375,2.225814819335937,7.90704345703125,14,1,1,4,67.55970164807513
1509425414144.0,1.85662841796875,3.392578125,9.90460205078125,14,1,1,4,113.0577972009778
1509425414144.0,2.657089233398437,0.2490081787109375,14.550949096679688,14,1,1,4,218.85224788147025
1509425414144.0,1.7792205810546875,-1.0502471923828125,9.373886108398438,14,1,1,4,92.13838581438176
1509425414144.0,0.0314483642578125,2.0247039794921875,5.6700592041015625,14,1,1,4,36.24998658220284
1509425414144.0,2.1862335205078125,3.3375244140625,7.472900390625,14,1,1,4,71.7629264688585
1509425414144.0,5.4559173583984375,2.0518341064453125,11.5733642578125,14,1,1,4,167.9198176660575
1509425414144.0,3.3474273681640625,0.1484527587890625,13.260482788085938,14,1,1,4,187.06771197984926
1509425414144.0,1.61322021484375,1.9305267333984373,7.7929229736328125,14,1,1,4,67.05906140292063
1509425414144.0,1.3634185791015625,1.59454345703125,7.0802459716796875,14,1,1,4,54.531362077686936
1509425414144.0,1.07611083984375,3.5091094970703125,5.8240814208984375,14,1,1,4,47.391788399312645
1509425414144.0,3.4431915283203125,4.4276885986328125,8.734649658203125,14,1,1,4,107.75409887870774
1509425414144.0,3.33624267578125,-1.7892608642578125,17.191757202148438,14,1,1,4,309.8884853296913
1509425414144.0,-0.2542572021484375,1.24578857421875,6.8520050048828125,14,1,1,4,48.56660848343745
1509425414144.0,2.60760498046875,2.001556396484375,5.22235107421875,15,1,1,4,38.07878248486668
1509425414144.0,5.012985229492188,3.932876586914064,7.986053466796875,15,1,1,4,104.37458913354206
1509425414144.0,3.542938232421875,2.5905303955078125,14.00189208984375,15,1,1,4,215.31624114443548
1509425414144.0,2.530990600585937,-0.7102813720703125,10.701873779296877,15,1,1,4,121.44051543576647
1509425414144.0,1.84625244140625,1.082977294921875,6.0299835205078125,15,1,1,4,40.94218915631063
1509425414144.0,1.2660675048828125,2.2832794189453125,5.7953643798828125,15,1,1,4,40.40254012751393
1509425414144.0,2.183837890625,3.426910400390625,9.874282836914062,15,1,1,4,114.01432436821051
1509425414144.0,3.5110321044921875,2.6392059326171875,12.942840576171875,15,1,1,4,186.8098765737377
1509425414144.0,3.050537109375,-1.5673980712890625,12.614044189453125,15,1,1,4,170.8766241830308
1509425414144.0,1.0426025390625,2.412567138671875,5.028411865234375,15,1,1,4,32.192426139488816
1509425414144.0,3.80950927734375,3.4117431640625,6.1289520263671875,15,1,1,4,63.71640529320575
1509425414144.0,4.7184906005859375,5.2616729736328125,8.101776123046875,15,1,1,4,115.58813237724826
1509425414144.0,4.9555206298828125,2.1372222900390625,12.615646362304688,15,1,1,4,188.27943696896546
1509425414144.0,4.18060302734375,1.663970947265625,7.057098388671875,15,1,1,4,70.04887865297496
1509425414144.0,3.318695068359375,-0.207489013671875,8.07623291015625,15,1,1,4,76.28232666663826
1509425414144.0,-0.1161956787109375,2.151596069335937,8.055496215820312,15,1,1,4,69.53388636442833
1509425414144.0,2.4974822998046875,3.4572296142578125,9.82958984375,15,1,1,4,114.81069093989208
1509425414144.0,2.6602935791015625,3.656753540039064,12.626815795898438,15,1,1,4,179.8854855231475
1509425414144.0,-0.379547119140625,2.075775146484375,7.49444580078125,15,1,1,4,60.61961633525789
1509425414144.0,1.799163818359375,1.3966217041015625,7.0203857421875,15,1,1,4,54.473358598770574
1509425414144.0,2.5286102294921875,4.262481689453125,7.3795166015625,15,1,1,4,79.01988511835225
1509425414144.0,5.7775421142578125,5.266448974609375,12.147964477539062,15,1,1,4,208.68851863173768
1509425414144.0,1.5046844482421875,3.659942626953125,11.041046142578123,15,1,1,4,137.56395524390967
1509425414144.0,1.025848388671875,2.445281982421875,7.5646820068359375,15,1,1,4,64.25618275464512
1509425414144.0,-0.24468994140625,2.956039428710937,6.960540771484375,15,1,1,4,57.24717010301538
1509425414144.0,-0.2071685791015625,4.1012725830078125,7.31329345703125,15,1,1,4,70.34761680895463
1509425414144.0,2.9906768798828125,4.51226806640625,11.190292358398438,15,1,1,4,154.52735436940566
1509425414144.0,2.6930084228515625,1.410186767578125,12.790420532226562,15,1,1,4,172.83577847620472
1509425414144.0,2.0784912109375,2.8834228515625,7.7099151611328125,15,1,1,4,72.07704484672286
1509425414144.0,2.87176513671875,5.256866455078125,3.774658203125,15,1,1,4,50.12972447741777
1509425414144.0,4.8709259033203125,6.25286865234375,7.7490234375,15,1,1,4,122.87164977402426
1509425414144.0,1.507080078125,4.592086791992188,13.730545043945312,15,1,1,4,211.88641867088154
1509425414144.0,3.14630126953125,2.7014617919921875,6.9733123779296875,15,1,1,4,65.82419301243499
1509425414144.0,2.139144897460937,2.285675048828125,5.9613494873046875,15,1,1,4,45.33793903095648
1509425414144.0,-0.45855712890625,4.145172119140625,7.2167205810546875,15,1,1,4,69.47378248278983
1509425414144.0,1.931640625,5.10205078125,10.089752197265623,15,1,1,4,131.56525708083058
1509425414144.0,2.178253173828125,1.9991607666015625,12.468002319335938,15,1,1,4,164.19251249497756
1509425414144.0,-1.350006103515625,1.9632568359375,8.48883056640625,15,1,1,4,77.73713826853782
1509425414144.0,1.7967681884765625,1.980010986328125,6.9621429443359375,15,1,1,4,55.6202538064681
1509425414144.0,2.95556640625,4.410125732421875,6.7945404052734375,15,1,1,4,74.35036107641645
1509425414144.0,2.762435913085937,3.55938720703125,13.22216796875,15,1,1,4,195.12601525732316
1509425414144.0,1.3817901611328125,-0.3854522705078125,13.8973388671875,15,1,1,4,195.19394509168342
1509425414144.0,1.7816162109375,2.2250213623046875,6.951751708984375,15,1,1,4,56.45172820915468
1509425414144.0,1.7113800048828125,2.9496612548828125,6.05792236328125,15,1,1,4,48.32774639921263
1509425414144.0,1.3314971923828125,4.7413177490234375,6.5630950927734375,15,1,1,4,67.32719596731476
1509425414144.0,2.456771850585937,6.220947265625,10.4632568359375,15,1,1,4,154.21565642231144
1509425414144.0,1.2572784423828125,0.881072998046875,12.434478759765625,15,1,1,4,156.97330073663034
1509425414144.0,-0.0268096923828125,2.8538970947265625,6.697967529296875,15,1,1,4,53.00821641040966
1509425414144.0,2.126373291015625,3.944854736328125,7.4609222412109375,15,1,1,4,75.7487029528711
1509425414144.0,2.84942626953125,4.1443634033203125,10.510345458984377,15,1,1,4,135.76233975146903
1509425414144.0,1.9819183349609373,2.9991455078125,11.074569702148438,16,1,1,4,135.56896815123037
1509425414144.0,2.8206939697265625,1.8993988037109373,8.702728271484375,16,1,1,4,87.30150965368375
1509425414144.0,1.924468994140625,1.5650177001953125,7.9884490966796875,16,1,1,4,69.96818028157577
1509425414144.0,1.250091552734375,3.5146942138671875,6.27020263671875,16,1,1,4,53.23124541272409
1509425414144.0,0.511077880859375,4.77642822265625,9.013961791992188,16,1,1,4,104.32697435398586
1509425414144.0,2.79754638671875,2.8275604248046875,12.413726806640625,16,1,1,4,169.92197697167285
1509425414144.0,1.5709228515625,-0.017547607421875,11.570175170898438,16,1,1,4,136.33706000936218
1509425414144.0,1.1335906982421875,1.5091552734375,6.665252685546875,16,1,1,4,47.988170872675255
1509425414144.0,2.401702880859375,3.437286376953125,5.77142333984375,16,1,1,4,50.89244173280895
1509425414144.0,4.1087799072265625,3.797210693359375,11.272491455078125,16,1,1,4,158.36994498060085
1509425414144.0,4.903656005859375,3.083740234375,12.7249755859375,16,1,1,4,195.48029971960932
1509425414144.0,3.18701171875,1.410186767578125,9.08978271484375,16,1,1,4,94.76982021797448
1509425414144.0,1.5310211181640625,1.40380859375,6.135345458984375,16,1,1,4,41.95716813323088
1509425414144.0,0.16473388671875,3.2633056640625,6.579864501953125,16,1,1,4,53.970917974598706
1509425414144.0,1.1838531494140625,3.59210205078125,10.94049072265625,16,1,1,4,133.99904267513193
1509425414144.0,1.560546875,2.0374755859375,13.598861694335938,16,1,1,4,191.5156526940409
1509425414144.0,-0.060333251953125,0.754974365234375,9.527923583984377,16,1,1,4,91.35495421569797
1509425414144.0,0.5685577392578125,2.047836303710937,5.8153076171875,16,1,1,4,38.33469411218539
1509425414144.0,2.146331787109375,3.8570709228515625,5.7801971435546875,16,1,1,4,52.894415262620896
1509425414144.0,4.5205841064453125,3.773269653320313,12.31396484375,16,1,1,4,186.30697471322492
1509425414144.0,3.900482177734375,0.586578369140625,14.030609130859375,16,1,1,4,212.41582798492163
1509425414144.0,1.9707489013671875,1.557830810546875,7.5750579833984375,16,1,1,4,63.69219151837751
1509425414144.0,0.2533111572265625,2.107696533203125,5.7801971435546875,16,1,1,4,37.9172302368097
1509425414144.0,0.6906585693359375,3.185089111328125,8.875106811523438,16,1,1,4,89.38932282244787
1509425414144.0,2.073699951171875,4.730148315429688,8.165618896484375,16,1,1,4,93.35186653607525
1509425414144.0,4.523773193359375,0.09259033203125,14.641937255859375,16,1,1,4,234.8594234790653
1509425414144.0,0.0737457275390625,1.833160400390625,8.622116088867188,16,1,1,4,77.70680133579299
1509425414144.0,1.9220733642578125,2.995956420898437,5.136154174804688,16,1,1,4,39.05020060087555
1509425414144.0,4.7911224365234375,3.985549926757813,8.67718505859375,16,1,1,4,114.1330029615201
1509425414144.0,2.296371459960937,2.910552978515625,14.623580932617188,16,1,1,4,227.59375981567428
1509425414144.0,2.654693603515625,1.7972564697265625,8.01080322265625,16,1,1,4,74.45049721864052
1509425414144.0,2.6818389892578125,1.41497802734375,6.412261962890625,16,1,1,4,50.31152666290291
1509425414144.0,1.4017333984375,2.7740936279296875,8.168014526367188,16,1,1,4,76.37691327976063
1509425414144.0,2.8502197265625,3.995925903320313,9.875076293945312,16,1,1,4,121.60830812575296
1509425414144.0,2.5884552001953125,2.8762359619140625,11.363479614257812,16,1,1,4,144.10150257567875
1509425414144.0,0.41851806640625,1.0694122314453125,9.309249877929688,16,1,1,4,87.98093318240717
1509425414144.0,0.8135528564453125,2.4891815185546875,7.17919921875,16,1,1,4,58.39879430504516
1509425414144.0,1.14874267578125,4.481948852539063,8.7418212890625,16,1,1,4,97.82691470184363
1509425414144.0,2.187835693359375,3.6016845703125,10.527099609375,16,1,1,4,128.5785829508677
1509425414144.0,0.8885650634765625,1.250579833984375,12.447250366210938,16,1,1,4,157.2875394723378
1509425414144.0,0.7712554931640625,1.7190399169921875,8.564651489257812,16,1,1,4,76.90318840439431
1509425414144.0,0.7042236328125,2.444488525390625,5.884735107421875,16,1,1,4,41.101562360301614
1509425414144.0,1.0545654296875,4.018280029296875,8.141677856445312,16,1,1,4,83.54560095747001
1509425414144.0,1.9915008544921875,2.7270050048828125,11.440887451171875,16,1,1,4,142.2965376204811
1509425414144.0,0.62042236328125,-0.6216888427734375,12.097702026367188,16,1,1,4,147.12581524485722
1509425414144.0,0.1431732177734375,0.24102783203125,8.539108276367188,16,1,1,4,72.99496314162388
1509425414144.0,1.5796966552734375,2.0837554931640625,6.73309326171875,16,1,1,4,52.17202334897593
1509425414144.0,2.073699951171875,2.434112548828125,10.65399169921875,16,1,1,4,123.73267451487482
1509425414144.0,1.459197998046875,2.699066162109375,11.6148681640625,16,1,1,4,144.31937941350043
1509425414144.0,2.359405517578125,1.2370147705078125,9.582977294921877,16,1,1,4,98.9304537738208
1509425414144.0,1.2133941650390625,1.8028411865234373,8.094589233398438,17,1,1,4,70.24493660102598
1509425414144.0,1.291595458984375,2.83154296875,7.50482177734375,17,1,1,4,66.00820432323962
1509425414144.0,1.0888824462890625,2.512313842773437,9.585372924804688,17,1,1,4,99.37675993400626
1509425414144.0,2.2500762939453125,2.1029052734375,11.021102905273438,17,1,1,4,130.94976316625252
1509425414144.0,2.167083740234375,2.021514892578125,10.879837036132812,17,1,1,4,127.15362833091058
1509425414144.0,0.140777587890625,2.168365478515625,7.34521484375,17,1,1,4,58.673808278515935
1509425414144.0,1.863006591796875,3.766082763671875,7.235870361328125,17,1,1,4,70.0119928298518
1509425414144.0,1.7728271484375,4.727752685546875,8.502410888671875,17,1,1,4,97.78555247373879
1509425414144.0,0.5645599365234375,4.697433471679688,11.566986083984375,17,1,1,4,156.17977620987222
1509425414144.0,3.05133056640625,3.290435791015625,8.283721923828125,17,1,1,4,88.75763483159244
1509425414144.0,1.6052398681640625,2.059814453125,8.04351806640625,17,1,1,4,71.51781350024976
1509425414144.0,1.4360504150390625,2.7796783447265625,7.5120086669921875,17,1,1,4,66.21912670764141
1509425414144.0,1.6738739013671875,3.6256256103515625,9.2374267578125,17,1,1,4,101.2770680100657
1509425414144.0,2.4128875732421875,2.6847076416015625,10.582962036132812,17,1,1,4,125.02876702020876
1509425414144.0,1.7959747314453125,-0.6855316162109375,14.197418212890625,17,1,1,4,205.26216274453327
1509425414144.0,0.7018280029296875,1.6336517333984375,7.836029052734375,17,1,1,4,64.56473184702918
1509425414144.0,1.4679718017578125,3.699050903320313,6.3723602294921875,17,1,1,4,56.44489369052462
1509425414144.0,2.7305145263671875,4.78521728515625,7.8025054931640625,17,1,1,4,91.23310601571575
1509425414144.0,1.67706298828125,2.488388061523437,14.080093383789062,17,1,1,4,207.25364510761574
1509425414144.0,2.127166748046875,0.970458984375,10.089752197265623,17,1,1,4,107.26972841657694
1509425414144.0,1.36822509765625,1.272918701171875,6.833648681640625,17,1,1,4,50.1911162417382
1509425414144.0,0.182281494140625,3.090927124023437,5.7642364501953125,17,1,1,4,42.813478882890195
1509425414144.0,1.090484619140625,4.0262451171875,9.251785278320312,17,1,1,4,102.99533728440292
1509425414144.0,2.062530517578125,1.9409027099609373,13.033828735351562,17,1,1,4,177.9018269679509
1509425414144.0,-0.28857421875,0.7884979248046875,9.978836059570312,17,1,1,4,100.28217316092923
1509425414144.0,0.499114990234375,1.638427734375,7.931793212890625,17,1,1,4,65.84690478630364
1509425414144.0,1.0721282958984375,4.164321899414063,6.48089599609375,17,1,1,4,60.49304887698964
1509425414144.0,2.90130615234375,3.334335327148437,11.950851440429688,17,1,1,4,162.3582196147181
1509425414144.0,1.4320526123046875,1.79486083984375,12.8199462890625,17,1,1,4,169.62332297326066
1509425414144.0,0.6268157958984375,2.6631622314453125,7.417022705078125,17,1,1,4,62.497556920628995
1509425414144.0,1.282012939453125,2.6815185546875,5.619781494140625,17,1,1,4,40.41604297794402
1509425414144.0,0.5166778564453125,2.9759979248046875,9.4808349609375,17,1,1,4,99.0097512123175
1509425414144.0,1.382568359375,3.82275390625,10.791259765625,17,1,1,4,132.97623002529144
1509425414144.0,1.0976715087890625,1.4955902099609375,12.063385009765625,17,1,1,4,148.96693071117625
1509425414144.0,-1.140106201171875,2.1731414794921875,8.672393798828125,17,1,1,4,81.23280024179257
1509425414144.0,1.0928802490234375,3.3622589111328125,5.474533081054688,17,1,1,4,42.46968467975968
1509425414144.0,3.371368408203125,3.6759033203125,9.11053466796875,17,1,1,4,107.880232100375
1509425414144.0,1.6866455078125,4.0286407470703125,11.976394653320312,17,1,1,4,162.5087482300587
1509425414144.0,2.1279754638671875,1.8978118896484373,9.916580200195312,17,1,1,4,106.46853241021745
1509425414144.0,1.566131591796875,2.1563873291015625,7.4856719970703125,17,1,1,4,63.138059723656625
1509425414144.0,0.9133148193359376,2.8969879150390625,6.8272552490234375,17,1,1,4,55.83809717441909
1509425414144.0,1.3889617919921875,3.267303466796875,9.831985473632812,17,1,1,4,109.27242515748367
1509425414144.0,1.0457916259765625,3.6431884765625,11.304412841796875,17,1,1,4,142.1562520985026
1509425414144.0,0.4959259033203125,1.22503662109375,11.305206298828125,17,1,1,4,129.55434668366797
1509425414144.0,-0.4753265380859375,2.8083953857421875,6.887115478515625,17,1,1,4,55.54537957487628
1509425414144.0,1.767242431640625,4.0916900634765625,5.508056640625,17,1,1,4,50.203761344077066
1509425414144.0,3.46392822265625,3.702239990234375,11.600509643554688,17,1,1,4,160.27720366721042
1509425414144.0,0.8933563232421875,4.177093505859375,11.969207763671875,17,1,1,4,161.50813016691245
1509425414144.0,1.2101898193359375,2.50274658203125,9.180755615234377,17,1,1,4,92.01457351935099
1509425414144.0,1.2860107421875,2.03826904296875,6.1935882568359375,17,1,1,4,44.168899815762416
1509425414144.0,0.6164398193359375,2.968017578125,7.45135498046875,18,1,1,4,64.71181743987836
1509425414144.0,1.4344482421875,4.44683837890625,9.484024047851562,18,1,1,4,111.77872546785511
1509425414144.0,0.794403076171875,2.4085693359375,12.637191772460938,18,1,1,4,166.13089838740416
1509425414144.0,-1.3747406005859375,1.7334136962890625,8.86871337890625,18,1,1,4,83.54871175857261
1509425414144.0,1.3897552490234375,2.5051422119140625,6.633331298828125,18,1,1,4,52.2082412741147
1509425414144.0,1.7465057373046875,4.0055084228515625,7.1017913818359375,18,1,1,4,69.5298208470922
1509425414144.0,1.7321319580078125,4.0142822265625,13.242919921875,18,1,1,4,194.48967097164132
1509425414144.0,2.0593414306640625,1.3287811279296875,12.686676025390625,18,1,1,4,166.95829498721287
1509425414144.0,1.6842498779296875,1.8355560302734373,7.1919708251953125,18,1,1,4,57.93040794203989
1509425414144.0,1.5908660888671875,3.14837646484375,6.358001708984375,18,1,1,4,52.867315008537844
1509425414144.0,1.0346221923828125,3.849090576171875,9.5877685546875,18,1,1,4,107.81124720280059
1509425414144.0,0.8861846923828125,5.065338134765625,10.088165283203123,18,1,1,4,128.21405250974925
1509425414144.0,-0.197601318359375,2.867462158203125,10.736190795898438,18,1,1,4,123.52717831567861
1509425414144.0,-0.7506561279296875,3.8626556396484375,8.3292236328125,18,1,1,4,84.85955953830853
1509425414144.0,0.867828369140625,4.3327178955078125,6.590240478515625,18,1,1,4,62.95684000500478
1509425414144.0,1.58209228515625,3.9727783203125,9.548660278320312,18,1,1,4,109.46289669186808
1509425414144.0,0.6754913330078125,4.051788330078125,10.83355712890625,18,1,1,4,134.23923727800138
1509425414144.0,2.9324188232421875,0.5626373291015625,10.203079223632812,18,1,1,4,113.01846656273119
1509425414144.0,1.9069061279296875,1.2210540771484375,7.964508056640625,18,1,1,4,68.56065262435004
1509425414144.0,1.2149810791015625,2.8810272216796875,8.132904052734375,18,1,1,4,75.9206252056174
1509425414144.0,1.81512451171875,4.761276245117188,7.5550994873046875,18,1,1,4,83.043956738431
1509425414144.0,3.520599365234375,4.895355224609375,8.8367919921875,18,1,1,4,114.44801537878811
1509425414144.0,2.8294677734375,0.7573699951171875,11.392196655273438,18,1,1,4,138.36164182284847
1509425414144.0,1.88775634765625,1.3471527099609375,8.279739379882812,18,1,1,4,73.93252865085378
1509425414144.0,1.829498291015625,4.02545166015625,6.5455474853515625,18,1,1,4,62.395516948075965
1509425414144.0,3.2604217529296875,5.1212005615234375,9.08819580078125,18,1,1,4,119.45234811166301
1509425414144.0,2.8669891357421875,3.3247528076171875,11.380233764648438,18,1,1,4,148.78332847426645
1509425414144.0,4.305099487304688,2.212249755859375,8.49761962890625,18,1,1,4,95.63746993546374
1509425414144.0,2.70098876953125,1.8658905029296875,8.94293212890625,18,1,1,4,90.75292276428081
1509425414144.0,1.0497894287109375,3.671920776367188,5.77142333984375,18,1,1,4,47.89438740024343
1509425414144.0,2.8358612060546875,3.956817626953125,8.76336669921875,18,1,1,4,100.49511041794904
1509425414144.0,3.1207733154296875,3.8003997802734375,11.333145141601562,18,1,1,4,152.6224433768075
1509425414144.0,1.9172821044921875,1.071807861328125,10.489593505859377,18,1,1,4,114.85631467797798
1509425414144.0,1.4520111083984375,3.205047607421875,7.1121673583984375,18,1,1,4,62.96359095862135
1509425414144.0,2.686614990234375,5.07012939453125,5.9501800537109375,18,1,1,4,68.32875485462137
1509425414144.0,3.55731201171875,5.2888031005859375,9.64923095703125,18,1,1,4,133.73356504761614
1509425414144.0,2.8462371826171875,3.974380493164064,12.240554809570312,18,1,1,4,173.72794845025055
1509425414144.0,2.2069854736328125,2.6312408447265625,8.515167236328125,18,1,1,4,84.30228632641956
1509425414144.0,1.3905487060546875,3.1499786376953125,5.5120391845703125,18,1,1,4,42.23856709408574
1509425414144.0,1.2716522216796875,3.544219970703125,7.5782470703125,18,1,1,4,71.60842323233373
1509425414144.0,2.7017822265625,5.1004486083984375,9.299667358398438,18,1,1,4,119.79801618354395
1509425414144.0,2.3035430908203125,3.2545166015625,12.347488403320312,18,1,1,4,168.35865895124152
1509425414144.0,-1.1369171142578125,2.08935546875,8.914215087890625,18,1,1,4,85.12121743266471
1509425414144.0,1.3107452392578125,3.955230712890625,5.1784515380859375,18,1,1,4,44.178263406734914
1509425414144.0,2.380157470703125,5.7971649169921875,6.1417236328125,18,1,1,4,76.9930398419965
1509425414144.0,2.1024322509765625,5.21856689453125,12.495132446289062,18,1,1,4,187.7819966529496
1509425414144.0,2.451995849609375,2.9249267578125,10.001968383789062,18,1,1,4,114.60685173538513
1509425414144.0,-0.11859130859375,3.9967193603515625,6.982086181640625,18,1,1,4,64.73735699173994
1509425414144.0,0.6802825927734375,4.9089202880859375,6.359588623046875,18,1,1,4,65.00465025519952
1509425414144.0,1.0354156494140625,3.59210205078125,8.902236938476562,18,1,1,4,93.22510521905497
1509145575424.0,-0.6607996821403503,2.7102363109588623,9.366117477416992,19,1,0,3,95.50619368193273
1509145575424.0,-0.545877993106842,2.7772738933563232,9.375694274902344,19,1,0,3,95.91487619851353
1509145575424.0,-0.2777273952960968,2.873042106628418,9.260771751403807,19,1,0,3,94.09339688415655
1509145575424.0,-0.2585737705230713,2.815581083297728,9.404424667358398,19,1,0,3,96.43756055544566
1509145575424.0,0.047884032130241394,2.691082715988159,9.184157371520996,19,1,0,3,91.59296568968671
1509145575424.0,-0.047884032130241394,2.9496564865112305,9.2033109664917,19,1,0,3,93.4036990148972
1509145575424.0,-0.047884032130241394,2.9305028915405287,9.490615844726562,19,1,0,3,98.66192919003534
1509145575424.0,-0.14365209639072418,3.00711727142334,9.14585018157959,19,1,0,3,92.70996575278942
1509145575424.0,0.0,2.9305028915405287,9.174580574035645,19,1,0,3,92.76077590679961
1509145575424.0,-0.009576806798577309,2.9688100814819336,9.165003776550293,19,1,0,3,92.81121923931835
1509145575424.0,-0.07661445438861847,3.045424461364746,8.992621421813965,19,1,0,3,90.14771996056743
1509145575424.0,-0.2011129409074784,3.045424461364746,9.318233489990234,19,1,0,3,96.1445319388548
1509145575424.0,-0.4692635238170624,3.0358476638793945,9.35654067993164,19,1,0,3,96.98143278828283
1509145575424.0,-0.6033388376235962,3.0166940689086914,9.165003776550293,19,1,0,3,93.461755082555
1509145575424.0,-0.26815059781074524,2.9305028915405287,9.184157371520996,19,1,0,3,93.00849856529712
1509145575424.0,-0.2585737705230713,3.0358476638793945,9.002198219299316,19,1,0,3,90.32280421264028
1509145575424.0,-0.3351882398128509,3.045424461364746,9.27034854888916,19,1,0,3,95.32632352387895
1509145575424.0,-0.181959331035614,3.026270866394043,9.41400146484375,19,1,0,3,97.81484813501655
1509145575424.0,-0.2489969730377197,3.0166940689086914,9.279925346374512,19,1,0,3,95.27945703225492
1509145575424.0,-0.12449848651885985,2.978386878967285,9.030928611755373,19,1,0,3,90.4439598645718
1509145575424.0,-0.12449848651885985,2.9975404739379883,9.136273384094238,19,1,0,3,92.47224011495065
1509145575424.0,-0.10534487664699554,2.978386878967285,9.107542991638184,19,1,0,3,91.82922528837805
1509145575424.0,-0.06703764945268631,2.978386878967285,9.299078941345217,19,1,0,3,95.34815160461869
1509145575424.0,-0.2394201755523681,3.093308687210083,9.222464561462402,19,1,0,3,94.6797332422608
1509145575424.0,-0.07661445438861847,3.0645780563354488,9.08838939666748,19,1,0,3,91.99633026345191
1509145575424.0,-0.028730420395731926,3.0166940689086914,9.337387084960938,19,1,0,3,96.2880661168403
1509145575424.0,-0.08619125932455063,3.026270866394043,9.059659004211426,19,1,0,3,91.24316556255846
1509145575424.0,-0.08619125932455063,2.9975404739379883,8.96389102935791,19,1,0,3,89.34402021228354
1509145575424.0,-0.06703764945268631,3.045424461364746,9.327810287475586,19,1,0,3,96.28714895545826
1509145575424.0,-0.15322890877723694,3.0837318897247314,9.404424667358398,19,1,0,3,97.97608479020946
1509145575424.0,-0.05746084079146385,3.07415509223938,9.15542697906494,19,1,0,3,93.27557444835594
1509145575424.0,-0.12449848651885985,3.093308687210083,8.868123054504395,19,1,0,3,88.2276650173472
1509145575424.0,-0.14365209639072418,3.0550012588500977,8.935160636901855,19,1,0,3,89.1907642236135
1509145575424.0,-0.07661445438861847,3.1699230670928955,9.222464561462402,19,1,0,3,95.10813461333879
1509145575424.0,-0.1149216815829277,3.1220390796661377,9.500192642211914,19,1,0,3,100.01399524699782
1509145575424.0,-0.08619125932455063,3.0550012588500977,9.069235801696776,19,1,0,3,91.59149965153819
1509145575424.0,-0.047884032130241394,2.9879636764526367,9.193734169006348,19,1,0,3,93.45496778268824
1509145575424.0,-0.047884032130241394,2.9688100814819336,9.097966194152832,19,1,0,3,91.58911505038958
1509145575424.0,-0.028730420395731926,3.00711727142334,9.27034854888916,19,1,0,3,94.98294193904002
1509145575424.0,-0.05746084079146385,3.0837318897247314,9.41400146484375,19,1,0,3,98.13612769600999
1509145575424.0,-0.07661445438861847,3.1411926746368413,9.251194953918457,19,1,0,3,95.45756926921975
1509145575424.0,-0.12449848651885985,3.1411926746368413,9.308655738830566,19,1,0,3,96.53366295640087
1509145575424.0,-0.019153613597154617,2.9496564865112305,9.346963882446287,19,1,0,3,96.06657406908698
1509145575424.0,0.05746084079146385,2.7676970958709717,9.2033109664917,19,1,0,3,92.36438170866344
1509145575424.0,-0.07661445438861847,2.940079689025879,9.260771751403807,19,1,0,3,94.4118317840425
1509145575424.0,-0.1628057211637497,3.0645780563354488,9.433155059814453,19,1,0,3,98.40255874871943
1509145575424.0,-0.13407529890537262,3.0837318897247314,9.66299819946289,19,1,0,3,102.90091275630489
1509145575424.0,0.05746084079146385,2.853888511657715,9.165003776550293,19,1,0,3,92.14527560937748
1509145575424.0,-0.13407529890537262,2.853888511657715,9.107542991638184,19,1,0,3,91.10999516728624
1509145575424.0,-0.10534487664699554,3.026270866394043,9.117119789123537,19,1,0,3,92.29128614904913
1509145575424.0,-0.0957680642604828,3.1411926746368413,9.528923034667967,20,1,0,3,100.67663714195014
1509145575424.0,-0.1628057211637497,3.1028854846954346,9.586383819580078,20,1,0,3,101.553158770284
1509145575424.0,-0.2106897532939911,3.0550012588500977,9.040505409240724,20,1,0,3,91.10816091822956
1509145575424.0,-0.15322890877723694,2.9879636764526367,8.877699851989746,20,1,0,3,87.76496069230419
1509145575424.0,-0.181959331035614,3.0166940689086914,9.2033109664917,20,1,0,3,93.83448504948618
1509145575424.0,-0.1915361285209656,3.026270866394043,9.672574996948242,20,1,0,3,102.75370851690244
1509145575424.0,-0.17238251864910126,3.1220390796661377,9.346963882446287,20,1,0,3,97.14257756745377
1509145575424.0,-0.0957680642604828,3.07415509223938,9.251194953918457,20,1,0,3,95.04420912867984
1509145575424.0,-0.181959331035614,3.07415509223938,8.992621421813965,20,1,0,3,90.35077876535965
1509145575424.0,-0.12449848651885985,2.882618904113768,8.26478385925293,20,1,0,3,76.63164385966729
1509145575424.0,0.07661445438861847,1.015141487121582,10.802638053894043,20,1,0,3,117.73337093693635
1509145575424.0,0.06703764945268631,0.7469909191131592,10.256759643554688,20,1,0,3,105.76360786533374
1509145575424.0,-0.10534487664699554,0.9385270476341248,9.682151794433594,20,1,0,3,94.63599393263026
1509145575424.0,0.07661445438861847,0.90979665517807,9.643844604492188,20,1,0,3,93.83733848398755
1509145575424.0,0.0,1.0534487962722778,9.682151794433594,20,1,0,3,94.85381773682117
1509145575424.0,-0.028730420395731926,1.235408067703247,9.710882186889648,20,1,0,3,95.82829137845307
1509145575424.0,0.028730420395731926,1.216254472732544,10.036493301391602,20,1,0,3,102.21129816837653
1509145575424.0,0.10534487664699554,1.1779472827911377,9.749189376831056,20,1,0,3,96.44535084938632
1509145575424.0,0.14365209639072418,1.0247182846069336,9.84495735168457,20,1,0,3,97.99386874409329
1509145575424.0,0.047884032130241394,1.1109095811843872,9.461885452270508,20,1,0,3,90.76368928998859
1509145575424.0,-0.047884032130241394,1.2832920551300049,9.346963882446287,20,1,0,3,89.01486519904822
1509145575424.0,-0.009576806798577309,1.1971008777618408,9.988609313964844,20,1,0,3,101.20545825379185
1509145575424.0,-0.12449848651885985,1.3311761617660522,9.921571731567383,20,1,0,3,100.22511547143668
1509145575424.0,0.0,1.235408067703247,9.739612579345703,20,1,0,3,96.38628628949533
1509145575424.0,0.009576806798577309,1.2258312702178955,9.461885452270508,20,1,0,3,91.03003033016074
1509145575424.0,-0.019153613597154617,1.3503297567367554,9.442731857299805,20,1,0,3,90.98894224170719
1509145575424.0,-0.1628057211637497,1.321599364280701,9.883264541625977,20,1,0,3,99.45204858227213
1509145575424.0,-0.2873041927814484,1.3886369466781616,9.66299819946289,20,1,0,3,95.38439047169251
1509145575424.0,-0.07661445438861847,1.273715257644653,9.490615844726562,20,1,0,3,91.70000944435293
1509145575424.0,-0.1628057211637497,1.321599364280701,9.672574996948242,20,1,0,3,95.33183765409909
1509145575424.0,-0.05746084079146385,1.168370485305786,9.854534149169922,20,1,0,3,98.4802346363143
1509145575424.0,-0.0957680642604828,1.235408067703247,9.749189376831056,20,1,0,3,96.582098121194
1509145575424.0,-0.14365209639072418,1.2832920551300049,9.710882186889648,20,1,0,3,95.96870727120792
1509145575424.0,-0.047884032130241394,1.2832920551300049,9.375694274902344,20,1,0,3,89.55277451572942
1509145575424.0,-0.1628057211637497,1.359906554222107,9.83538055419922,20,1,0,3,98.61056218498005
1509145575424.0,-0.038307227194309235,1.2258312702178955,9.988609313964844,20,1,0,3,101.27644577372456
1509145575424.0,-0.038307227194309235,1.2449848651885986,9.66299819946289,20,1,0,3,94.92498896102705
1509145575424.0,-0.08619125932455063,1.1875240802764893,9.710882186889648,20,1,0,3,95.71887522207115
1509145575424.0,-0.17238251864910126,1.2545616626739502,9.672574996948242,20,1,0,3,95.16234776977532
1509145575424.0,0.028730420395731926,1.2258312702178955,9.452308654785156,20,1,0,3,90.84962664542651
1509145575424.0,-0.2106897532939911,1.2832920551300049,10.065223693847656,20,1,0,3,102.99995667809513
1509145575424.0,-0.1628057211637497,1.4173674583435059,9.797073364257812,20,1,0,3,98.01808271946467
1509145575424.0,0.009576806798577309,1.4077905416488647,9.797073364257812,20,1,0,3,97.96461242903436
1509145575424.0,-0.0957680642604828,1.3311761617660522,9.66299819946289,20,1,0,3,95.15473569860947
1509145575424.0,-0.2489969730377197,1.3120225667953491,9.394847869873047,20,1,0,3,90.04656920642033
1509145575424.0,-0.17238251864910126,1.1492167711257937,9.739612579345703,20,1,0,3,96.21046811552166
1509145575424.0,-0.4788403511047363,1.1204863786697388,10.065223693847656,20,1,0,3,102.79350581382279
1509145575424.0,0.10534487664699554,1.015141487121582,9.634267807006836,20,1,0,3,93.8607259590395
1509145575424.0,-0.3064578175544739,1.235408067703247,9.528923034667967,20,1,0,3,92.4205236883123
1509145575424.0,-0.2873041927814484,1.3694833517074585,9.423578262329102,20,1,0,3,90.76185561603526
1509150294016.0,0.2489969730377197,-0.15322890877723694,9.768342971801758,21,1,0,3,95.50600300581581
1509150294016.0,0.2298433631658554,-0.1628057211637497,9.816226959228516,21,1,0,3,96.43764538951974
1509150294016.0,0.2585737705230713,-0.17238251864910126,9.787496566772461,21,1,0,3,95.89166517212104
1509150294016.0,0.363918662071228,-0.2011129409074784,9.768342971801758,21,1,0,3,95.59340762235297
1509150294016.0,0.3447650372982025,-0.17238251864910126,9.720458984375,21,1,0,3,94.63590153059569
1509150294016.0,0.3351882398128509,-0.22026655077934265,9.768342971801758,21,1,0,3,95.58139292424987
1509150294016.0,0.3447650372982025,-0.2106897532939911,9.816226959228516,21,1,0,3,96.52156481817103
1509150294016.0,0.2298433631658554,-0.1915361285209656,9.84495735168457,21,1,0,3,97.01269931660826
1509150294016.0,0.3256114423274994,-0.2106897532939911,9.787496566772461,21,1,0,3,95.94550202810039
1509150294016.0,0.3256114423274994,-0.2011129409074784,9.730035781860352,21,1,0,3,94.82006554265783
1509150294016.0,0.2585737705230713,-0.17238251864910126,9.806650161743164,21,1,0,3,96.26696352235555
1509150294016.0,0.2968810200691223,-0.2106897532939911,9.825803756713867,21,1,0,3,96.6789479776727
1509150294016.0,0.2873041927814484,-0.1915361285209656,9.739612579345703,21,1,0,3,94.97928298346766
1509150294016.0,0.2394201755523681,-0.1915361285209656,9.749189376831056,21,1,0,3,95.14070161430584
1509150294016.0,0.2585737705230713,-0.181959331035614,9.739612579345703,21,1,0,3,94.9600227887025
1509150294016.0,0.3256114423274994,-0.1915361285209656,9.806650161743164,21,1,0,3,96.31309629472062
1509150294016.0,0.3064578175544739,-0.1915361285209656,9.797073364257812,21,1,0,3,96.11324898711894
1509150294016.0,0.3064578175544739,-0.17238251864910126,9.854534149169922,21,1,0,3,97.23547542383221
1509150294016.0,0.3543418645858765,-0.2298433631658554,9.806650161743164,21,1,0,3,96.34877352340682
1509150294016.0,0.2968810200691223,-0.1915361285209656,9.797073364257812,21,1,0,3,96.10747093325598
1509150294016.0,0.2298433631658554,-0.22026655077934265,9.816226959228516,21,1,0,3,96.45965704006834
1509150294016.0,0.3543418645858765,-0.2298433631658554,9.787496566772461,21,1,0,3,95.9734751731723
1509150294016.0,0.3543418645858765,-0.22026655077934265,9.720458984375,21,1,0,3,94.66139837730708
1509150294016.0,0.3064578175544739,-0.17238251864910126,9.672574996948242,21,1,0,3,93.68233919826434
1509150294016.0,0.31603461503982544,-0.2394201755523681,9.806650161743164,21,1,0,3,96.32758729318212
1509150294016.0,0.2489969730377197,-0.2106897532939911,9.873687744140623,21,1,0,3,97.59609933351778
1509150294016.0,0.2968810200691223,-0.2106897532939911,9.892841339111328,21,1,0,3,98.00083827305038
1509150294016.0,0.3351882398128509,-0.2106897532939911,9.806650161743164,21,1,0,3,96.32712872306915
1509150294016.0,0.2873041927814484,-0.2106897532939911,9.758766174316406,21,1,0,3,95.36045111631495
1509150294016.0,0.363918662071228,-0.2394201755523681,9.806650161743164,21,1,0,3,96.36014620788247
1509150294016.0,0.3447650372982025,-0.2011129409074784,9.787496566772461,21,1,0,3,95.95439839052639
1509150294016.0,0.2968810200691223,-0.2011129409074784,9.749189376831056,21,1,0,3,95.17527826039326
1509150294016.0,0.26815059781074524,-0.2106897532939911,9.730035781860352,21,1,0,3,94.78989123153212
1509150294016.0,0.22026655077934265,-0.2011129409074784,9.77791976928711,21,1,0,3,95.69667878300837
1509150294016.0,0.3830722570419312,-0.2394201755523681,9.84495735168457,21,1,0,3,97.1272516310648
1509150294016.0,0.2968810200691223,-0.22026655077934265,9.816226959228516,21,1,0,3,96.49496740855422
1509150294016.0,0.31603461503982544,-0.2298433631658554,9.816226959228516,21,1,0,3,96.51101756457948
1509150294016.0,0.2968810200691223,-0.2106897532939911,9.768342971801758,21,1,0,3,95.55305292696916
1509150294016.0,0.3256114423274994,-0.2489969730377197,9.758766174316406,21,1,0,3,95.40153954893862
1509150294016.0,0.3447650372982025,-0.22026655077934265,9.710882186889648,21,1,0,3,94.46861313198615
1509150294016.0,0.2777273952960968,-0.2394201755523681,9.758766174316406,21,1,0,3,95.36797177154155
1509150294016.0,0.2968810200691223,-0.181959331035614,9.816226959228516,21,1,0,3,96.47955925331291
1509150294016.0,0.2585737705230713,-0.2011129409074784,9.883264541625977,21,1,0,3,97.7862248095643
1509150294016.0,0.2968810200691223,-0.1915361285209656,9.83538055419922,21,1,0,3,96.85953507452625
1509150294016.0,0.3256114423274994,-0.22026655077934265,9.758766174316406,21,1,0,3,95.3880574097489
1509150294016.0,0.3734954595565796,-0.1915361285209656,9.730035781860352,21,1,0,3,94.84978126312096
1509150294016.0,0.2873041927814484,-0.2011129409074784,9.806650161743164,21,1,0,3,96.29337750900748
1509150294016.0,0.2394201755523681,-0.22026655077934265,9.797073364257812,21,1,0,3,96.08848587850365
1509150294016.0,0.31603461503982544,-0.22026655077934265,9.806650161743164,21,1,0,3,96.31878262611282
1509150294016.0,0.31603461503982544,-0.22026655077934265,9.768342971801758,21,1,0,3,95.56891964604439
1509150294016.0,0.2394201755523681,-0.22026655077934265,9.768342971801758,22,1,0,3,95.52636378860255
1509150294016.0,0.3256114423274994,-0.22026655077934265,9.768342971801758,22,1,0,3,95.57506457951563
1509150294016.0,0.2968810200691223,-0.2298433631658554,9.797073364257812,22,1,0,3,96.12361281631857
1509150294016.0,0.2489969730377197,-0.22026655077934265,9.749189376831056,22,1,0,3,95.15721035128969
1509150294016.0,0.26815059781074524,-0.22026655077934265,9.77791976928711,22,1,0,3,95.72813711111417
1509150294016.0,0.3447650372982025,-0.2298433631658554,9.787496566772461,22,1,0,3,95.96677994711733
1509150294016.0,0.3734954595565796,-0.2489969730377197,9.806650161743164,22,1,0,3,96.37188574570855
1509150294016.0,0.31603461503982544,-0.26815059781074524,9.806650161743164,22,1,0,3,96.34217001582685
1509150294016.0,0.31603461503982544,-0.26815059781074524,9.797073364257812,22,1,0,3,96.15442912565952
1509150294016.0,0.3064578175544739,-0.2489969730377197,9.825803756713867,22,1,0,3,96.70233535197454
1509150294016.0,0.3256114423274994,-0.2777273952960968,9.797073364257812,22,1,0,3,96.16580182212245
1509150294016.0,0.2298433631658554,-0.2394201755523681,9.77791976928711,22,1,0,3,95.7178650066686
1509150294016.0,0.2873041927814484,-0.2585737705230713,9.797073364257812,22,1,0,3,96.13205059864221
1509150294016.0,0.2777273952960968,-0.2298433631658554,9.797073364257812,22,1,0,3,96.11260698233924
1509150294016.0,0.2585737705230713,-0.2394201755523681,9.816226959228516,22,1,0,3,96.48249413034875
1509150294016.0,0.2298433631658554,-0.2489969730377197,9.83538055419922,22,1,0,3,96.8495381100935
1509150294016.0,0.3447650372982025,-0.2489969730377197,9.758766174316406,22,1,0,3,95.41437966850725
1509150294016.0,0.2298433631658554,-0.2489969730377197,9.701305389404297,22,1,0,3,94.2301537226582
1509150294016.0,0.2489969730377197,-0.2489969730377197,9.720458984375,22,1,0,3,94.61132185208055
1509150294016.0,0.181959331035614,-0.26815059781074524,9.66299819946289,22,1,0,3,93.47854814408025
1509150294016.0,0.22026655077934265,-0.2489969730377197,9.682151794433594,22,1,0,3,93.85458021642783
1509150294016.0,0.2873041927814484,-0.26815059781074524,9.77791976928711,22,1,0,3,95.76216345691174
1509150294016.0,0.3064578175544739,-0.26815059781074524,9.864110946655273,22,1,0,3,97.4665059049709
1509150294016.0,0.3543418645858765,-0.2489969730377197,9.749189376831056,22,1,0,3,95.23425115489566
1509150294016.0,0.31603461503982544,-0.2298433631658554,9.739612579345703,22,1,0,3,95.01275904524383
1509150294016.0,0.2011129409074784,-0.2011129409074784,9.806650161743164,22,1,0,3,96.25128022481813
1509150294016.0,0.2489969730377197,-0.2585737705230713,9.825803756713867,22,1,0,3,96.67527935283681
1509150294016.0,0.4022258818149567,-0.26815059781074524,9.77791976928711,22,1,0,3,95.84140541772376
1509150294016.0,0.363918662071228,-0.2298433631658554,9.768342971801758,22,1,0,3,95.60578917894391
1509150294016.0,0.2873041927814484,-0.2777273952960968,9.797073364257812,22,1,0,3,96.14232270993764
1509150294016.0,0.2873041927814484,-0.2489969730377197,9.77791976928711,22,1,0,3,95.75225820638742
1509150294016.0,0.2585737705230713,-0.26815059781074524,9.825803756713867,22,1,0,3,96.68518460336112
1509150294016.0,0.2777273952960968,-0.2489969730377197,9.758766174316406,22,1,0,3,95.37264924366197
1509150294016.0,0.2585737705230713,-0.22026655077934265,9.758766174316406,22,1,0,3,95.34889499317681
1509150294016.0,0.2777273952960968,-0.2777273952960968,9.787496566772461,22,1,0,3,95.94935405677862
1509150294016.0,0.3064578175544739,-0.2585737705230713,9.787496566772461,22,1,0,3,95.95586583332548
1509150294016.0,0.3351882398128509,-0.2298433631658554,9.758766174316406,22,1,0,3,95.3986963726823
1509150294016.0,0.2777273952960968,-0.2585737705230713,9.701305389404297,22,1,0,3,94.25931915938533
1509150294016.0,0.2489969730377197,-0.2777273952960968,9.77791976928711,22,1,0,3,95.74684701329558
1509150294016.0,0.3064578175544739,-0.2585737705230713,9.749189376831056,22,1,0,3,95.20747029405828
1509150294016.0,0.31603461503982544,-0.26815059781074524,9.797073364257812,22,1,0,3,96.15442912565952
1509150294016.0,0.3064578175544739,-0.2489969730377197,9.77791976928711,22,1,0,3,95.76363090113787
1509150294016.0,0.2873041927814484,-0.2489969730377197,9.701305389404297,22,1,0,3,94.2598694502566
1509150294016.0,0.26815059781074524,-0.2585737705230713,9.758766174316406,22,1,0,3,95.37228238289084
1509150294016.0,0.2106897532939911,-0.2585737705230713,9.806650161743164,22,1,0,3,96.28163796176283
1509150294016.0,0.2873041927814484,-0.2394201755523681,9.720458984375,22,1,0,3,94.62718858656798
1509150294016.0,0.2585737705230713,-0.2585737705230713,9.768342971801758,22,1,0,3,95.55424520435383
1509150294016.0,0.22026655077934265,-0.2489969730377197,9.758766174316406,22,1,0,3,95.34403409095624
1509150294016.0,0.2489969730377197,-0.2298433631658554,9.77791976928711,22,1,0,3,95.72254247878902
1509150294016.0,0.2777273952960968,-0.2011129409074784,9.816226959228516,22,1,0,3,96.47589063618312
1509418860544.0,-0.31011962890625,4.11004638671875,9.072219848632812,23,1,0,3,99.29382846713997
1509418860544.0,-0.6724395751953125,3.463623046875,10.930130004882812,23,1,0,3,131.91660151677206
1509418860544.0,0.3394927978515625,2.73419189453125,11.967605590820312,23,1,0,3,150.81464425334707
1509418860544.0,1.0098876953125,1.19390869140625,13.357040405273438,23,1,0,3,180.85581950866617
1509418860544.0,0.85345458984375,1.647216796875,10.620468139648438,23,1,0,3,116.23605141812004
1509418860544.0,1.8909454345703125,1.746185302734375,7.859954833984375,23,1,0,3,68.40372774028219
1509418860544.0,0.9771575927734376,0.964874267578125,7.0419464111328125,23,1,0,3,51.4748285706155
1509418860544.0,0.8566436767578125,4.00390625,6.5623016357421875,23,1,0,3,59.828906406182796
1509418860544.0,0.605255126953125,3.9384613037109375,8.61334228515625,23,1,0,3,90.06747653079219
1509418860544.0,0.539825439453125,3.935272216796875,7.47369384765625,23,1,0,3,71.63387865386903
1509418860544.0,0.2916259765625,4.4085235595703125,7.843994140625,23,1,0,3,81.04836976365186
1509418860544.0,0.31317138671875,4.238540649414063,8.385086059570312,23,1,0,3,88.37297138059512
1509418860544.0,0.51348876953125,5.0733184814453125,8.764175415039062,23,1,0,3,102.81300183618441
1509418860544.0,0.9093170166015624,4.4715728759765625,9.706680297851562,23,1,0,3,115.04146382655017
1509418860544.0,0.8766021728515625,3.612060546875,8.991622924804688,23,1,0,3,94.66469558561221
1509418860544.0,0.2365570068359375,2.81878662109375,8.294113159179688,23,1,0,3,76.79383033001795
1509418860544.0,0.8111572265625,3.236968994140625,9.18634033203125,23,1,0,3,95.52479301113635
1509418860544.0,1.342681884765625,3.1244354248046875,10.2525634765625,23,1,0,3,116.67994920839556
1509418860544.0,1.9053192138671875,3.746124267578125,9.843948364257812,23,1,0,3,114.56700773304328
1509418860544.0,0.7185821533203125,3.71661376953125,8.009994506835938,23,1,0,3,78.48959022248164
1509418860544.0,1.6690826416015625,4.502700805664063,9.140853881835938,23,1,0,3,106.61536109889857
1509418860544.0,1.282012939453125,4.5170745849609375,9.919769287109377,23,1,0,3,120.44934269250373
1509418860544.0,0.48394775390625,3.4356842041015625,8.322845458984375,23,1,0,3,81.30788791296072
1509418860544.0,0.6284027099609375,2.3670654296875,7.4864654541015625,23,1,0,3,62.045053709764034
1509418860544.0,-0.0643157958984375,5.0086822509765625,8.269363403320312,23,1,0,3,93.473405509023
1509418860544.0,-0.30853271484375,3.81317138671875,9.779312133789062,23,1,0,3,110.27041427069344
1509418860544.0,1.535797119140625,3.8155670166015625,11.174331665039062,23,1,0,3,141.78291260963306
1509418860544.0,-0.33087158203125,0.7884979248046875,9.019546508789062,23,1,0,3,82.08342420542613
1509418860544.0,2.858993530273437,4.2161865234375,9.140060424804688,23,1,0,3,109.49077737564221
1509418860544.0,0.605255126953125,2.745361328125,9.479232788085938,23,1,0,3,97.7591968413908
1509418860544.0,2.7321014404296875,3.1930694580078125,10.218246459960938,23,1,0,3,122.07263156096451
1509418860544.0,2.3019561767578125,2.43890380859375,9.215072631835938,23,1,0,3,96.16481763729826
1509418860544.0,2.50225830078125,0.1229095458984375,10.318801879882812,23,1,0,3,112.7540755965747
1509418860544.0,2.27880859375,1.4923858642578125,9.159210205078123,23,1,0,3,91.31131575559263
1509418860544.0,1.6052398681640625,1.4485015869140625,10.33795166015625,23,1,0,3,111.5481964093633
1509418860544.0,2.6562957763671875,2.750946044921875,8.810455322265625,23,1,0,3,92.24773437925614
1509418860544.0,1.5501708984375,2.203475952148437,9.171173095703123,23,1,0,3,91.3687520374078
1509418860544.0,2.441619873046875,0.42059326171875,9.421768188476562,23,1,0,3,94.90812209364958
1509418860544.0,2.41766357421875,-0.154022216796875,10.542266845703123,23,1,0,3,117.00821024738248
1509418860544.0,2.31072998046875,0.1588134765625,11.285263061523438,23,1,0,3,132.72185713076033
1509418860544.0,0.53582763671875,1.2593536376953125,8.96368408203125,23,1,0,3,82.22071516350843
1509418860544.0,-0.77301025390625,3.8211517333984375,9.462478637695312,23,1,0,3,104.73724739113823
1509418860544.0,-3.073837280273437,3.837905883789064,10.025909423828123,23,1,0,3,124.69685697322709
1509418860544.0,-1.000457763671875,2.16595458984375,9.958877563476562,23,1,0,3,104.87151734647341
1509418860544.0,-0.3859405517578125,3.7174072265625,7.9820709228515625,23,1,0,3,77.68152281502262
1509418860544.0,-0.6700592041015625,4.909713745117188,8.08740234375,23,1,0,3,89.96034506568685
1509418860544.0,0.85186767578125,4.20263671875,9.461685180664062,23,1,0,3,107.91132038482465
1509418860544.0,2.53179931640625,2.93609619140625,9.638046264648438,23,1,0,3,107.92260442324914
1509418860544.0,1.74969482421875,1.3814544677734375,8.330825805664062,23,1,0,3,74.37250702874735
1509418860544.0,2.992279052734375,3.3925933837890625,7.8192596435546875,23,1,0,3,81.60424517048523
1509422137344.0,1.4416351318359375,3.6224365234375,8.966079711914062,24,1,0,3,95.59094362007454
1509422137344.0,1.24212646484375,3.703033447265625,9.103347778320312,24,1,0,3,98.12627563928254
1509422137344.0,1.168701171875,3.998321533203125,9.119308471679688,24,1,0,3,100.5142245136667
1509422137344.0,1.6523284912109375,3.637603759765625,8.404251098632812,24,1,0,3,86.59378708479926
1509422137344.0,0.5023040771484375,4.5122833251953125,10.59173583984375,24,1,0,3,132.7978782937862
1509422137344.0,5.7743377685546875,2.62005615234375,6.0675048828125,24,1,0,3,77.02228640974499
1509422137344.0,3.23089599609375,4.3167572021484375,10.2525634765625,24,1,0,3,134.18813952081837
1509422137344.0,3.11279296875,3.3095855712890625,6.62933349609375,24,1,0,3,64.59089932241477
1509422137344.0,-3.65802001953125,6.9902801513671875,5.85601806640625,24,1,0,3,96.53807465196587
1509422137344.0,-4.7920684814453125,4.189865112304688,9.612518310546877,24,1,0,3,132.91939826076853
1509422137344.0,3.56927490234375,0.9361419677734376,6.431427001953125,24,1,0,3,54.97933839377947
1509422137344.0,11.357620239257812,-1.917755126953125,8.564651489257812,24,1,0,3,206.02657735859975
1509422137344.0,9.372833251953123,-1.38623046875,9.315628051757812,24,1,0,3,176.55256408010607
1509422137344.0,0.2636871337890625,-0.1484375,8.40423583984375,24,1,0,3,70.72274464764632
1509422137344.0,-7.044219970703125,6.268829345703125,4.7794189453125,24,1,0,3,111.76210181601346
1509422137344.0,-9.495071411132812,5.509857177734375,13.894149780273438,24,1,0,3,313.5623053382151
1509422137344.0,-0.895904541015625,1.51873779296875,7.055511474609375,24,1,0,3,52.889451598748565
1509422137344.0,5.94512939453125,0.6288909912109375,7.03955078125,24,1,0,3,85.29534259834327
1509422137344.0,10.747894287109377,-2.52667236328125,7.3404083251953125,24,1,0,3,175.7828992188443
1509422137344.0,10.99609375,-2.087738037109375,6.718719482421875,24,1,0,3,170.41391935385764
1509422137344.0,2.0058746337890625,0.4189910888671875,6.1864166259765625,24,1,0,3,42.47083724918775
1509422137344.0,-11.649063110351562,13.296600341796875,12.990737915039062,24,1,0,3,481.25952357565984
1509422137344.0,-6.2126312255859375,2.46124267578125,13.408920288085938,24,1,0,3,224.45364554645494
1509422137344.0,8.7567138671875,-3.01348876953125,7.298919677734375,24,1,0,3,139.0353807779029
