time,Acc_x,Acc_y,Acc_z,id,scenario,behavior,class
1509149376512.0,-0.009576806798577309,-0.2777273952960968,9.768342971801758,0,1,1,4
1509149376512.0,0.10534487664699554,-0.2873041927814484,9.710882186889648,0,1,1,4
1509149376512.0,0.1628057211637497,-0.26815059781074524,9.730035781860352,0,1,1,4
1509149376512.0,0.20111294090747836,-0.3543418645858765,9.720458984375,0,1,1,4
1509149376512.0,0.08619125932455063,-0.3351882398128509,9.797073364257812,0,1,1,4
1509149376512.0,0.05746084079146385,-0.31603461503982544,9.787496566772461,0,1,1,4
1509149376512.0,0.07661445438861847,-0.2968810200691223,9.730035781860352,0,1,1,4
1509149376512.0,0.1149216815829277,-0.2968810200691223,9.749189376831056,0,1,1,4
1509149376512.0,0.12449848651885985,-0.2968810200691223,9.739612579345703,0,1,1,4
1509149376512.0,0.08619125932455063,-0.31603461503982544,9.730035781860352,0,1,1,4
1509149376512.0,0.12449848651885985,-0.2968810200691223,9.710882186889648,0,1,1,4
1509149376512.0,0.15322890877723694,-0.2968810200691223,9.710882186889648,0,1,1,4
1509149376512.0,0.10534487664699554,-0.2873041927814484,9.816226959228516,0,1,1,4
1509149376512.0,0.05746084079146385,-0.3064578175544739,9.816226959228516,0,1,1,4
1509149376512.0,0.13407529890537262,-0.2968810200691223,9.816226959228516,0,1,1,4
1509149376512.0,0.22026655077934265,-0.31603461503982544,9.691728591918944,0,1,1,4
1509149376512.0,0.2585737705230713,-0.2777273952960968,9.672574996948242,0,1,1,4
1509149376512.0,0.1628057211637497,-0.23942017555236814,9.739612579345703,0,1,1,4
1509149376512.0,0.1628057211637497,-0.2777273952960968,9.77791976928711,0,1,1,4
1509149376512.0,0.20111294090747836,-0.2968810200691223,9.758766174316406,0,1,1,4
1509149376512.0,0.2106897532939911,-0.2777273952960968,9.701305389404297,0,1,1,4
1509149376512.0,0.1149216815829277,-0.22026655077934265,9.758766174316406,0,1,1,4
1509149376512.0,0.08619125932455063,-0.22026655077934265,9.825803756713867,0,1,1,4
1509149376512.0,0.17238251864910126,-0.2777273952960968,9.768342971801758,0,1,1,4
1509149376512.0,0.2489969730377197,-0.2585737705230713,9.720458984375,0,1,1,4
1509149376512.0,0.22026655077934265,-0.23942017555236814,9.720458984375,0,1,1,4
1509149376512.0,0.17238251864910126,-0.2489969730377197,9.720458984375,0,1,1,4
1509149376512.0,0.17238251864910126,-0.2489969730377197,9.739612579345703,0,1,1,4
1509149376512.0,0.1915361285209656,-0.20111294090747836,9.768342971801758,0,1,1,4
1509149376512.0,0.22026655077934265,-0.2298433631658554,9.83538055419922,0,1,1,4
1509149376512.0,0.23942017555236814,-0.2106897532939911,9.854534149169922,0,1,1,4
1509149376512.0,0.23942017555236814,-0.2489969730377197,9.77791976928711,0,1,1,4
1509149376512.0,0.2489969730377197,-0.2489969730377197,9.749189376831056,0,1,1,4
1509149376512.0,0.2298433631658554,-0.2489969730377197,9.797073364257812,0,1,1,4
1509149376512.0,0.2873041927814484,-0.2298433631658554,9.825803756713867,0,1,1,4
1509149376512.0,0.3064578175544739,-0.2106897532939911,9.768342971801758,0,1,1,4
1509149376512.0,0.23942017555236814,-0.22026655077934265,9.682151794433594,0,1,1,4
1509149376512.0,0.2585737705230713,-0.23942017555236814,9.672574996948242,0,1,1,4
1509149376512.0,0.2777273952960968,-0.22026655077934265,9.797073364257812,0,1,1,4
1509149376512.0,0.31603461503982544,-0.23942017555236814,9.883264541625977,0,1,1,4
1509149376512.0,0.2489969730377197,-0.2777273952960968,9.83538055419922,0,1,1,4
1509149376512.0,0.18195933103561399,-0.20111294090747836,9.806650161743164,0,1,1,4
1509149376512.0,0.3064578175544739,-0.2298433631658554,9.701305389404297,0,1,1,4
1509149376512.0,0.4213795065879822,-0.22026655077934265,9.672574996948242,0,1,1,4
1509149376512.0,0.3734954595565796,-0.22026655077934265,9.701305389404297,0,1,1,4
1509149376512.0,0.36391866207122797,-0.20111294090747836,9.77791976928711,0,1,1,4
1509149376512.0,0.2873041927814484,-0.2106897532939911,9.825803756713867,0,1,1,4
1509149376512.0,0.31603461503982544,-0.26815059781074524,9.883264541625977,0,1,1,4
1509149376512.0,0.36391866207122797,-0.22026655077934265,9.883264541625977,0,1,1,4
1509149376512.0,0.2968810200691223,-0.1628057211637497,9.83538055419922,0,1,1,4
1509149376512.0,-0.019153613597154617,0.0,9.768342971801758,1,1,1,4
1509149376512.0,-0.1149216815829277,-0.019153613597154617,9.864110946655273,1,1,1,4
1509149376512.0,-0.08619125932455063,-0.009576806798577309,9.758766174316406,1,1,1,4
1509149376512.0,-0.12449848651885985,-0.009576806798577309,9.653421401977539,1,1,1,4
1509149376512.0,-0.1915361285209656,0.0,9.701305389404297,1,1,1,4
1509149376512.0,-0.3064578175544739,-0.019153613597154617,9.797073364257812,1,1,1,4
1509149376512.0,-0.13407529890537262,-0.019153613597154617,9.84495735168457,1,1,1,4
1509149376512.0,0.0,0.0,9.768342971801758,1,1,1,4
1509149376512.0,-0.1149216815829277,0.019153613597154617,9.768342971801758,1,1,1,4
1509149376512.0,-0.2489969730377197,-0.019153613597154617,9.911994934082033,1,1,1,4
1509149376512.0,-0.1149216815829277,-0.009576806798577309,9.873687744140623,1,1,1,4
1509149376512.0,-0.028730420395731926,0.009576806798577309,9.758766174316406,1,1,1,4
1509149376512.0,-0.14365209639072418,0.0,9.672574996948242,1,1,1,4
1509149376512.0,-0.31603461503982544,0.019153613597154617,9.720458984375,1,1,1,4
1509149376512.0,-0.1628057211637497,0.019153613597154617,9.787496566772461,1,1,1,4
1509149376512.0,-0.23942017555236814,0.009576806798577309,9.864110946655273,1,1,1,4
1509149376512.0,-0.17238251864910126,0.009576806798577309,9.787496566772461,1,1,1,4
1509149376512.0,-0.14365209639072418,0.028730420395731926,9.768342971801758,1,1,1,4
1509149376512.0,-0.22026655077934265,0.019153613597154617,9.816226959228516,1,1,1,4
1509149376512.0,-0.23942017555236814,0.009576806798577309,9.873687744140623,1,1,1,4
1509149376512.0,-0.20111294090747836,0.028730420395731926,9.749189376831056,1,1,1,4
1509149376512.0,-0.14365209639072418,0.05746084079146385,9.701305389404297,1,1,1,4
1509149376512.0,-0.2106897532939911,0.047884032130241394,9.720458984375,1,1,1,4
1509149376512.0,-0.17238251864910126,0.028730420395731926,9.825803756713867,1,1,1,4
1509149376512.0,-0.20111294090747836,0.019153613597154617,9.931148529052734,1,1,1,4
1509149376512.0,-0.2106897532939911,0.009576806798577309,9.911994934082033,1,1,1,4
1509149376512.0,-0.2298433631658554,0.028730420395731926,9.749189376831056,1,1,1,4
1509149376512.0,-0.20111294090747836,0.028730420395731926,9.768342971801758,1,1,1,4
1509149376512.0,-0.17238251864910126,0.019153613597154617,9.816226959228516,1,1,1,4
1509149376512.0,-0.2106897532939911,0.009576806798577309,9.787496566772461,1,1,1,4
1509149376512.0,-0.2585737705230713,0.009576806798577309,9.768342971801758,1,1,1,4
1509149376512.0,-0.0957680642604828,-0.019153613597154617,9.758766174316406,1,1,1,4
1509149376512.0,-0.0957680642604828,0.019153613597154617,9.787496566772461,1,1,1,4
1509149376512.0,-0.18195933103561399,0.0,9.83538055419922,1,1,1,4
1509149376512.0,-0.15322890877723694,0.009576806798577309,9.806650161743164,1,1,1,4
1509149376512.0,-0.15322890877723694,0.028730420395731926,9.83538055419922,1,1,1,4
1509149376512.0,-0.2298433631658554,0.019153613597154617,9.797073364257812,1,1,1,4
1509149376512.0,-0.1149216815829277,0.028730420395731926,9.816226959228516,1,1,1,4
1509149376512.0,-0.1149216815829277,0.028730420395731926,9.825803756713867,1,1,1,4
1509149376512.0,-0.2298433631658554,0.009576806798577309,9.797073364257812,1,1,1,4
1509149376512.0,-0.2968810200691223,0.019153613597154617,9.787496566772461,1,1,1,4
1509149376512.0,-0.1628057211637497,0.019153613597154617,9.806650161743164,1,1,1,4
1509149376512.0,-0.17238251864910126,0.0,9.806650161743164,1,1,1,4
1509149376512.0,-0.3064578175544739,-0.009576806798577309,9.739612579345703,1,1,1,4
1509149376512.0,-0.20111294090747836,0.019153613597154617,9.768342971801758,1,1,1,4
1509149376512.0,-0.06703764945268631,0.038307227194309235,9.83538055419922,1,1,1,4
1509149376512.0,-0.1149216815829277,0.019153613597154617,9.816226959228516,1,1,1,4
1509149376512.0,-0.2106897532939911,0.0,9.787496566772461,1,1,1,4
1509149376512.0,-0.20111294090747836,0.019153613597154617,9.749189376831056,1,1,1,4
1509149376512.0,-0.2106897532939911,0.038307227194309235,9.864110946655273,1,1,1,4
1509150294016.0,0.4405331015586853,-0.2777273952960968,9.490615844726562,2,1,1,4
1509150294016.0,0.2585737705230713,-0.2968810200691223,9.60553741455078,2,1,1,4
1509150294016.0,0.2585737705230713,-0.31603461503982544,9.567230224609377,2,1,1,4
1509150294016.0,0.22026655077934265,-0.3351882398128509,9.624691009521484,2,1,1,4
1509150294016.0,0.2489969730377197,-0.2489969730377197,9.825803756713867,2,1,1,4
1509150294016.0,0.3064578175544739,-0.26815059781074524,9.797073364257812,2,1,1,4
1509150294016.0,0.2585737705230713,-0.2489969730377197,9.96945571899414,2,1,1,4
1509150294016.0,0.2106897532939911,-0.26815059781074524,9.854534149169922,2,1,1,4
1509150294016.0,0.2777273952960968,-0.23942017555236814,9.825803756713867,2,1,1,4
1509150294016.0,0.36391866207122797,-0.31603461503982544,9.66299819946289,2,1,1,4
1509150294016.0,0.2777273952960968,-0.2968810200691223,9.60553741455078,2,1,1,4
1509150294016.0,0.13407529890537262,-0.3064578175544739,9.701305389404297,2,1,1,4
1509150294016.0,0.3064578175544739,-0.3447650372982025,9.787496566772461,2,1,1,4
1509150294016.0,0.4788403511047363,-0.3351882398128509,9.797073364257812,2,1,1,4
1509150294016.0,0.2777273952960968,-0.36391866207122797,9.691728591918944,2,1,1,4
1509150294016.0,0.2106897532939911,-0.3351882398128509,9.77791976928711,2,1,1,4
1509150294016.0,0.18195933103561399,-0.3447650372982025,9.787496566772461,2,1,1,4
1509150294016.0,0.4405331015586853,-0.3447650372982025,9.787496566772461,2,1,1,4
1509150294016.0,0.4118026793003082,-0.3543418645858765,9.624691009521484,2,1,1,4
1509150294016.0,0.2777273952960968,-0.3447650372982025,9.691728591918944,2,1,1,4
1509150294016.0,0.2298433631658554,-0.3447650372982025,9.77791976928711,2,1,1,4
1509150294016.0,0.4022258818149567,-0.3830722570419312,9.83538055419922,2,1,1,4
1509150294016.0,0.2585737705230713,-0.3543418645858765,9.710882186889648,2,1,1,4
1509150294016.0,0.26815059781074524,-0.3543418645858765,9.624691009521484,2,1,1,4
1509150294016.0,0.2968810200691223,-0.3830722570419312,9.691728591918944,2,1,1,4
1509150294016.0,0.2298433631658554,-0.4022258818149567,9.864110946655273,2,1,1,4
1509150294016.0,0.20111294090747836,-0.4213795065879822,9.883264541625977,2,1,1,4
1509150294016.0,0.2298433631658554,-0.4022258818149567,9.806650161743164,2,1,1,4
1509150294016.0,0.2777273952960968,-0.4022258818149567,9.66299819946289,2,1,1,4
1509150294016.0,0.3447650372982025,-0.36391866207122797,9.615114212036133,2,1,1,4
1509150294016.0,0.3256114423274994,-0.3926490843296051,9.710882186889648,2,1,1,4
1509150294016.0,0.18195933103561399,-0.3543418645858765,9.83538055419922,2,1,1,4
1509150294016.0,0.22026655077934265,-0.3926490843296051,9.883264541625977,2,1,1,4
1509150294016.0,0.3064578175544739,-0.3926490843296051,9.749189376831056,2,1,1,4
1509150294016.0,0.2298433631658554,-0.3734954595565796,9.710882186889648,2,1,1,4
1509150294016.0,0.3064578175544739,-0.3830722570419312,9.768342971801758,2,1,1,4
1509150294016.0,0.20111294090747836,-0.3543418645858765,9.83538055419922,2,1,1,4
1509150294016.0,0.23942017555236814,-0.3543418645858765,9.730035781860352,2,1,1,4
1509150294016.0,0.2968810200691223,-0.3351882398128509,9.730035781860352,2,1,1,4
1509150294016.0,0.22026655077934265,-0.3543418645858765,9.816226959228516,2,1,1,4
1509150294016.0,0.13407529890537262,-0.3543418645858765,9.749189376831056,2,1,1,4
1509150294016.0,0.2873041927814484,-0.36391866207122797,9.768342971801758,2,1,1,4
1509150294016.0,0.2968810200691223,-0.3734954595565796,9.797073364257812,2,1,1,4
1509150294016.0,0.2489969730377197,-0.3926490843296051,9.682151794433594,2,1,1,4
1509150294016.0,0.3543418645858765,-0.4213795065879822,9.720458984375,2,1,1,4
1509150294016.0,0.23942017555236814,-0.3447650372982025,9.730035781860352,2,1,1,4
1509150294016.0,0.31603461503982544,-0.3734954595565796,9.892841339111328,2,1,1,4
1509150294016.0,0.2777273952960968,-0.4022258818149567,9.710882186889648,2,1,1,4
1509150294016.0,0.2873041927814484,-0.3734954595565796,9.816226959228516,2,1,1,4
1509150294016.0,0.3447650372982025,-0.3256114423274994,9.816226959228516,2,1,1,4
1509156454400.0,0.4213795065879822,2.1260511875152592,9.634267807006836,3,1,1,4
1509156454400.0,0.4596867263317108,2.1164743900299072,9.60553741455078,3,1,1,4
1509156454400.0,0.10534487664699554,2.2026655673980717,9.232041358947754,3,1,1,4
1509156454400.0,0.07661445438861847,1.944091796875,9.47146224975586,3,1,1,4
1509156454400.0,-0.009576806798577309,2.0590133666992188,10.113107681274414,3,1,1,4
1509156454400.0,0.20111294090747836,2.0207061767578125,9.730035781860352,3,1,1,4
1509156454400.0,0.507570743560791,1.915361404418945,9.2033109664917,3,1,1,4
1509156454400.0,0.3256114423274994,2.240972757339477,9.308655738830566,3,1,1,4
1509156454400.0,0.4501099288463593,1.8100165128707888,9.959878921508787,3,1,1,4
1509156454400.0,0.18195933103561399,2.039859771728516,9.59596061706543,3,1,1,4
1509156454400.0,0.019153613597154617,2.2026655673980717,8.992621421813965,3,1,1,4
1509156454400.0,-0.13407529890537262,1.522712230682373,10.362105369567873,3,1,1,4
1509156454400.0,-0.2489969730377197,1.6950948238372805,9.730035781860352,3,1,1,4
1509156454400.0,-0.009576806798577309,1.9632453918457031,9.289502143859863,3,1,1,4
1509156454400.0,0.4213795065879822,1.8770540952682493,9.84495735168457,3,1,1,4
1509156454400.0,0.4692635238170624,2.2122423648834233,9.41400146484375,3,1,1,4
1509156454400.0,0.2106897532939911,2.097320795059204,9.040505409240724,3,1,1,4
1509156454400.0,-0.12449848651885985,2.183511972427368,9.615114212036133,3,1,1,4
1509156454400.0,-0.18195933103561399,2.231395959854126,9.394847869873047,3,1,1,4
1509156454400.0,-0.06703764945268631,2.2792799472808842,9.241618156433104,3,1,1,4
1509156454400.0,-0.06703764945268631,2.1164743900299072,8.695740699768066,3,1,1,4
1509156454400.0,0.07661445438861847,2.0207061767578125,9.77791976928711,3,1,1,4
1509156454400.0,0.2777273952960968,2.0590133666992188,9.557653427124023,3,1,1,4
1509156454400.0,0.15322890877723694,2.451662540435791,9.576807022094727,3,1,1,4
1509156454400.0,0.3926490843296051,2.0590133666992188,9.35654067993164,3,1,1,4
1509156454400.0,-0.4692635238170624,2.4420857429504395,9.59596061706543,3,1,1,4
1509156454400.0,-0.07661445438861847,1.8483237028121948,9.500192642211914,3,1,1,4
1509156454400.0,-0.6799532771110535,2.154781579971313,9.117119789123537,3,1,1,4
1509156454400.0,0.15322890877723694,1.656787633895874,9.174580574035645,3,1,1,4
1509156454400.0,-0.17238251864910126,2.250549554824829,8.983044624328613,3,1,1,4
1509156454400.0,0.3351882398128509,1.972822189331055,9.940725326538086,3,1,1,4
1509156454400.0,-0.009576806798577309,2.3942017555236816,8.877699851989746,3,1,1,4
1509156454400.0,-0.07661445438861847,2.298433542251587,9.682151794433594,3,1,1,4
1509156454400.0,-0.26815059781074524,2.039859771728516,9.097966194152832,3,1,1,4
1509156454400.0,-0.6607996821403503,2.403778553009033,10.017339706420898,3,1,1,4
1509156454400.0,0.0,2.183511972427368,8.868123054504395,3,1,1,4
1509156454400.0,0.0,2.365471363067627,9.059659004211426,3,1,1,4
1509156454400.0,-0.17238251864910126,2.403778553009033,9.433155059814453,3,1,1,4
1509156454400.0,-0.17238251864910126,2.365471363067627,9.404424667358398,3,1,1,4
1509156454400.0,0.2489969730377197,2.3750481605529785,9.337387084960938,3,1,1,4
1509156454400.0,0.08619125932455063,2.346317768096924,9.557653427124023,3,1,1,4
1509156454400.0,0.1149216815829277,2.183511972427368,8.791508674621582,3,1,1,4
1509156454400.0,-0.5841852426528931,2.6144683361053467,9.634267807006836,3,1,1,4
1509156454400.0,0.028730420395731926,1.9823989868164065,9.404424667358398,3,1,1,4
1509156454400.0,0.13407529890537262,2.518700122833252,9.002198219299316,3,1,1,4
1509156454400.0,0.2585737705230713,2.4899697303771973,10.065223693847656,3,1,1,4
1509156454400.0,0.6512228846549988,2.2792799472808842,9.35654067993164,3,1,1,4
1509156454400.0,0.038307227194309235,2.6431987285614014,9.193734169006348,3,1,1,4
1509156454400.0,-0.1628057211637497,2.4612393379211426,9.634267807006836,3,1,1,4
1509156454400.0,-0.06703764945268631,2.4420857429504395,9.08838939666748,3,1,1,4
1509247156224.0,8.726394653320312,2.4309234619140625,-4.3424835205078125,4,1,1,4
1509247156224.0,8.59710693359375,2.7693023681640625,-4.1509552001953125,4,1,1,4
1509247156224.0,11.327301025390625,1.2018890380859375,-1.9530792236328125,4,1,1,4
1509247156224.0,4.578033447265625,4.8921661376953125,-5.9442138671875,4,1,1,4
1509247156224.0,3.341033935546875,3.418930053710937,-3.1844940185546875,4,1,1,4
1509247156224.0,19.20101928710937,-8.991012573242188,1.5328826904296875,4,1,1,4
1509247156224.0,-5.1591796875,9.959884643554688,-5.1102294921875,4,1,1,4
1509247156224.0,12.39111328125,-0.321624755859375,-2.07757568359375,4,1,1,4
1509247156224.0,10.14935302734375,1.2322235107421875,-4.1796875,4,1,1,4
1509247156224.0,5.1247100830078125,6.7740020751953125,-2.190093994140625,4,1,1,4
1509247156224.0,13.144485473632812,0.7884979248046875,-2.13104248046875,4,1,1,4
1509247156224.0,0.0106964111328125,10.063629150390623,-5.1964263916015625,4,1,1,4
1509247156224.0,17.527481079101562,-5.1036376953125,0.3166351318359375,4,1,1,4
1509247156224.0,-2.1496734619140625,10.471450805664062,-6.882736206054688,4,1,1,4
1509247156224.0,10.949005126953123,0.2976837158203125,-0.846954345703125,4,1,1,4
1509247156224.0,13.261016845703125,-2.81317138671875,-1.8700714111328125,4,1,1,4
1509247156224.0,4.207733154296875,6.063720703125,-2.916351318359375,4,1,1,4
1509247156224.0,14.886672973632812,-4.1539306640625,-0.570831298828125,4,1,1,4
1509247156224.0,1.9420318603515625,8.646270751953125,-5.5786895751953125,4,1,1,4
1509247156224.0,17.198684692382812,-8.541702270507812,4.561538696289063,4,1,1,4
1509247156224.0,0.8438720703125,10.451492309570312,-3.8101806640625,4,1,1,4
1509247156224.0,14.776535034179688,-5.552947998046875,3.644561767578125,4,1,1,4
1509247156224.0,0.76885986328125,9.496200561523438,-9.68475341796875,4,1,1,4
1509247156224.0,10.631378173828123,-1.2178497314453125,0.38446044921875,4,1,1,4
1509247156224.0,10.86920166015625,-2.7493438720703125,-3.2483367919921875,4,1,1,4
1509247156224.0,5.278732299804688,3.933685302734375,-4.417510986328125,4,1,1,4
1509247156224.0,14.014389038085938,-3.0142974853515625,-2.5300750732421875,4,1,1,4
1509247156224.0,2.3713836669921875,8.180206298828125,-5.557144165039063,4,1,1,4
1509247156224.0,15.7078857421875,-4.465179443359375,-0.02734375,4,1,1,4
1509247156224.0,3.302734375,7.4810791015625,-3.94744873046875,4,1,1,4
1509247156224.0,15.505172729492188,-7.16424560546875,3.372421264648437,4,1,1,4
1509247156224.0,4.5509033203125,8.37652587890625,-3.069580078125,4,1,1,4
1509247156224.0,15.912185668945312,-9.102752685546877,4.95819091796875,4,1,1,4
1509247156224.0,4.092010498046875,7.7939300537109375,-3.9259033203125,4,1,1,4
1509247156224.0,14.695938110351562,-6.4603424072265625,6.010833740234375,4,1,1,4
1509247156224.0,1.6052398681640625,8.311080932617188,-4.998504638671875,4,1,1,4
1509247156224.0,13.70074462890625,-6.7452545166015625,6.211944580078125,4,1,1,4
1509247156224.0,3.1223602294921875,6.418060302734375,-8.198745727539062,4,1,1,4
1509247156224.0,11.691207885742188,-5.976715087890625,4.667694091796875,4,1,1,4
1509247156224.0,7.5644073486328125,-2.323974609375,-0.6657867431640625,4,1,1,4
1509247156224.0,7.399200439453125,1.2841033935546875,-2.473419189453125,4,1,1,4
1509247156224.0,14.1348876953125,-5.4651641845703125,-1.01055908203125,4,1,1,4
1509247156224.0,2.2077789306640625,6.4124755859375,-2.90277099609375,4,1,1,4
1509247156224.0,15.201904296875,-6.809906005859375,2.4945526123046875,4,1,1,4
1509247156224.0,1.3562469482421875,8.125930786132812,-5.49969482421875,4,1,1,4
1509247156224.0,16.378265380859375,-8.010986328125,6.436203002929688,4,1,1,4
1509247156224.0,-2.776947021484375,10.953475952148438,-7.9489593505859375,4,1,1,4
1509247156224.0,16.728622436523438,-7.6957550048828125,7.404266357421875,4,1,1,4
1509247156224.0,-1.6325225830078125,8.742828369140625,-6.960952758789063,4,1,1,4
1509247156224.0,13.357574462890625,-4.9695587158203125,4.451416015625,4,1,1,4
1509247156224.0,6.447113037109375,2.9536590576171875,-2.1589813232421875,5,1,1,4
1509247156224.0,7.901992797851562,1.7334136962890625,-3.1429901123046875,5,1,1,4
1509247156224.0,14.079833984375,-5.295166015625,4.889556884765625,5,1,1,4
1509247156224.0,5.4455413818359375,6.321502685546875,-5.855621337890625,5,1,1,4
1509247156224.0,15.746994018554688,-6.547332763671875,5.8264923095703125,5,1,1,4
1509247156224.0,4.2364654541015625,8.058883666992188,-4.291412353515625,5,1,1,4
1509247156224.0,14.770156860351562,-5.105224609375,5.5846710205078125,5,1,1,4
1509247156224.0,2.7512664794921875,7.2536468505859375,-5.9944915771484375,5,1,1,4
1509247156224.0,13.892288208007812,-2.8083953857421875,4.2910003662109375,5,1,1,4
1509247156224.0,4.195770263671875,5.2369232177734375,-3.13421630859375,5,1,1,4
1509247156224.0,12.08306884765625,-0.50677490234375,3.9470367431640634,5,1,1,4
1509247156224.0,6.3657073974609375,3.051010131835937,-4.822921752929688,5,1,1,4
1509247156224.0,7.5596160888671875,4.2648773193359375,-4.6593170166015625,5,1,1,4
1509247156224.0,9.153350830078123,3.10687255859375,-8.404647827148438,5,1,1,4
1509247156224.0,3.6131744384765625,7.0756683349609375,-9.7701416015625,5,1,1,4
1509247156224.0,12.419845581054688,-1.6679534912109375,6.213546752929688,5,1,1,4
1509247156224.0,4.51898193359375,5.8346710205078125,-5.1517333984375,5,1,1,4
1509247156224.0,12.979293823242188,-3.9017486572265625,9.348358154296877,5,1,1,4
1509247156224.0,6.98101806640625,6.047760009765625,-7.6528778076171875,5,1,1,4
1509247156224.0,13.265792846679688,-3.821136474609375,3.529647827148437,5,1,1,4
1509247156224.0,4.833419799804688,3.644775390625,-3.8564605712890634,5,1,1,4
1509247156224.0,9.407943725585938,0.945709228515625,-2.716827392578125,5,1,1,4
1509247156224.0,12.185226440429688,-1.6041107177734375,5.630157470703125,5,1,1,4
1509247156224.0,7.0943450927734375,5.0206451416015625,-9.27215576171875,5,1,1,4
1509247156224.0,14.50201416015625,-6.3119049072265625,7.0970001220703125,5,1,1,4
1509247156224.0,3.0848541259765625,8.337417602539062,-7.538742065429687,5,1,1,4
1509247156224.0,14.954513549804688,-5.15631103515625,6.56390380859375,5,1,1,4
1509247156224.0,3.8757476806640634,7.770782470703125,-5.854034423828125,5,1,1,4
1509247156224.0,13.208343505859375,-3.735748291015625,4.4865264892578125,5,1,1,4
1509247156224.0,4.635498046875,5.828292846679688,-4.8380889892578125,5,1,1,4
1509247156224.0,12.077468872070312,-0.5474700927734375,0.8944244384765625,5,1,1,4
1509247156224.0,6.300262451171875,4.069351196289063,-3.690460205078125,5,1,1,4
1509247156224.0,10.395156860351562,0.786102294921875,-0.91558837890625,5,1,1,4
1509247156224.0,9.765472412109377,-0.2138824462890625,-2.28985595703125,5,1,1,4
1509247156224.0,5.799087524414063,5.051773071289063,-6.849212646484375,5,1,1,4
1509247156224.0,13.683990478515625,-2.9791717529296875,2.9638214111328125,5,1,1,4
1509247156224.0,5.898040771484375,5.901702880859375,-5.4071044921875,5,1,1,4
1509247156224.0,14.457321166992188,-4.461196899414063,5.366790771484375,5,1,1,4
1509247156224.0,2.961944580078125,7.62713623046875,-3.4845733642578125,5,1,1,4
1509247156224.0,13.779754638671875,-4.0821075439453125,6.9581451416015625,5,1,1,4
1509247156224.0,4.4423675537109375,9.384475708007812,-18.15223693847656,5,1,1,4
1509247156224.0,11.213973999023438,-1.082977294921875,2.40277099609375,5,1,1,4
1509247156224.0,8.136627197265625,3.81317138671875,-14.743698120117188,5,1,1,4
1509247156224.0,7.958648681640625,2.320785522460937,-3.741546630859375,5,1,1,4
1509247156224.0,11.45098876953125,-2.4237213134765625,-0.01617431640625,5,1,1,4
1509247156224.0,4.9220123291015625,6.091644287109375,-6.1876220703125,5,1,1,4
1509247156224.0,13.67919921875,-4.24652099609375,4.5719146728515625,5,1,1,4
1509247156224.0,6.656997680664063,4.635986328125,-5.266647338867188,5,1,1,4
1509247156224.0,11.955368041992188,-2.60089111328125,2.05401611328125,5,1,1,4
1509247156224.0,9.048019409179688,1.044677734375,0.22406005859375,5,1,1,4
1509251612672.0,-0.9289502501487732,0.4405331015586853,11.061211585998537,6,1,1,4
1509251612672.0,0.6607996821403503,1.2832920551300049,7.134721279144287,6,1,1,4
1509251612672.0,-0.0957680642604828,3.0166940689086914,8.418013572692871,6,1,1,4
1509251612672.0,0.8427590131759644,1.6663644313812256,12.469002723693848,6,1,1,4
1509251612672.0,1.5322890281677246,1.168370485305786,9.84495735168457,6,1,1,4
1509251612672.0,0.4118026793003082,1.8387469053268437,7.603984832763673,6,1,1,4
1509251612672.0,-0.2968810200691223,3.658340215682984,8.705317497253418,6,1,1,4
1509251612672.0,-0.009576806798577309,5.008669853210449,8.159439086914062,6,1,1,4
1509251612672.0,-0.871489405632019,2.815581083297729,11.30063247680664,6,1,1,4
1509251612672.0,0.2585737705230713,2.7964274883270264,6.617573261260986,6,1,1,4
1509251612672.0,-0.038307227194309235,4.1180267333984375,8.686163902282715,6,1,1,4
1509251612672.0,0.36391866207122797,5.372588634490967,9.567230224609377,6,1,1,4
1509251612672.0,1.273715257644653,2.786850690841675,8.89685344696045,6,1,1,4
1509251612672.0,0.2777273952960968,2.537853717803955,7.65186882019043,6,1,1,4
1509251612672.0,-0.5746083855628967,4.0988731384277335,9.002198219299316,6,1,1,4
1509251612672.0,-0.3926490843296051,5.027823448181152,9.14585018157959,6,1,1,4
1509251612672.0,-1.0821791887283323,3.1028854846954346,9.184157371520996,6,1,1,4
1509251612672.0,0.0,3.1507694721221924,6.847416877746582,6,1,1,4
1509251612672.0,0.0,4.0509891510009775,9.174580574035645,6,1,1,4
1509251612672.0,1.5131354331970217,4.242525577545166,10.074800491333008,6,1,1,4
1509251612672.0,0.4501099288463593,3.6104562282562256,7.048529624938965,6,1,1,4
1509251612672.0,-0.4788403511047363,3.8402996063232417,8.47547435760498,6,1,1,4
1509251612672.0,1.4652514457702637,4.0988731384277335,7.7189064025878915,6,1,1,4
1509251612672.0,0.13407529890537262,4.0988731384277335,11.444284439086914,6,1,1,4
1509251612672.0,0.2298433631658554,2.82515811920166,8.159439086914062,6,1,1,4
1509251612672.0,0.1628057211637497,3.9935283660888667,8.034940719604492,6,1,1,4
1509251612672.0,1.4269442558288574,5.726930618286133,6.828263282775879,6,1,1,4
1509251612672.0,1.656787633895874,4.797980308532715,11.473014831542967,6,1,1,4
1509251612672.0,0.7182605266571045,2.3558945655822754,8.169015884399414,6,1,1,4
1509251612672.0,1.599326729774475,3.409343242645264,6.1291561126708975,6,1,1,4
1509251612672.0,1.8100165128707888,3.4380736351013184,11.425130844116213,6,1,1,4
1509251612672.0,1.8387469053268437,2.2122423648834233,10.132261276245117,6,1,1,4
1509251612672.0,1.7142484188079834,2.5091233253479004,5.07570743560791,6,1,1,4
1509251612672.0,2.6240451335906982,2.8634653091430664,10.046070098876953,6,1,1,4
1509251612672.0,3.2178070545196533,4.520252704620361,8.178592681884767,6,1,1,4
1509251612672.0,2.815581083297729,2.240972757339477,11.616666793823242,6,1,1,4
1509251612672.0,0.7278373241424559,0.9002198576927185,7.996633529663086,6,1,1,4
1509251612672.0,2.786850690841675,2.4133553504943848,7.738059997558594,6,1,1,4
1509251612672.0,2.8634653091430664,1.7334020137786863,12.239158630371096,6,1,1,4
1509251612672.0,1.1300631761550903,1.359906554222107,9.02135181427002,6,1,1,4
1509251612672.0,1.5705963373184204,2.097320795059204,6.904877662658691,6,1,1,4
1509251612672.0,2.6431987285614014,2.652775526046753,9.2033109664917,6,1,1,4
1509251612672.0,2.5282769203186035,3.2848446369171143,11.09951877593994,6,1,1,4
1509251612672.0,2.030282974243164,2.2218191623687744,7.929595947265625,6,1,1,4
1509251612672.0,1.0534487962722778,2.3080103397369385,7.929595947265625,6,1,1,4
1509251612672.0,1.5610195398330688,2.82515811920166,9.96945571899414,6,1,1,4
1509251612672.0,-0.047884032130241394,2.4229321479797363,11.760318756103516,6,1,1,4
1509251612672.0,-0.5746083855628967,1.0247182846069336,9.117119789123537,6,1,1,4
1509251612672.0,0.5554547905921936,2.815581083297729,7.07726001739502,6,1,1,4
1509251612672.0,1.072602391242981,2.806004285812378,9.720458984375,6,1,1,4
1509323177984.0,-3.093308687210083,5.851428985595702,6.655880928039551,7,1,1,4
1509323177984.0,-3.1220390796661377,5.449203014373778,7.51779317855835,7,1,1,4
1509323177984.0,-2.82515811920166,5.8226985931396475,7.163451671600343,7,1,1,4
1509323177984.0,-3.00711727142334,5.679046630859375,7.105990409851074,7,1,1,4
1509323177984.0,-2.4899697303771973,6.291962146759032,6.732495307922362,7,1,1,4
1509323177984.0,-3.0837318897247314,6.215347766876222,6.368576526641847,7,1,1,4
1509323177984.0,-2.19308876991272,6.167463779449463,7.690176010131836,7,1,1,4
1509323177984.0,-1.5897499322891235,6.5888428688049325,6.5888428688049325,7,1,1,4
1509323177984.0,-2.547430515289306,6.3973069190979,6.617573261260986,7,1,1,4
1509323177984.0,-1.7908629179000854,6.224924564361572,7.115567684173584,7,1,1,4
1509323177984.0,-2.164358377456665,6.215347766876222,6.789956092834473,7,1,1,4
1509323177984.0,-2.154781579971313,6.493074893951416,6.387730121612549,7,1,1,4
1509323177984.0,-2.298433542251587,6.761225700378418,6.7708024978637695,7,1,1,4
1509323177984.0,-2.19308876991272,6.426037311553955,6.952761650085449,7,1,1,4
1509323177984.0,-2.164358377456665,6.71334171295166,6.45476770401001,7,1,1,4
1509323177984.0,-2.2601263523101807,6.7708024978637695,6.57926607131958,7,1,1,4
1509323177984.0,-2.652775526046753,6.4356141090393075,6.675034523010254,7,1,1,4
1509323177984.0,-2.0590133666992188,7.086836814880371,5.717353820800781,7,1,1,4
1509323177984.0,-2.346317768096924,6.847416877746582,6.234501361846924,7,1,1,4
1509323177984.0,-2.2122423648834233,6.320692539215088,7.259219646453857,7,1,1,4
1509323177984.0,-2.269703149795532,6.646304130554199,6.311115741729736,7,1,1,4
1509323177984.0,-2.3750481605529785,6.186617374420166,7.096413612365723,7,1,1,4
1509323177984.0,0.05746084079146385,6.751648902893066,6.780379295349121,7,1,1,4
1509323177984.0,0.10534487664699554,6.89530086517334,6.445190906524657,7,1,1,4
1509323177984.0,-0.1915361285209656,6.560112476348878,7.287950038909912,7,1,1,4
1509323177984.0,0.5363011956214905,7.086836814880371,6.2632317543029785,7,1,1,4
1509323177984.0,-0.0957680642604828,6.856993675231934,6.45476770401001,7,1,1,4
1509323177984.0,-0.1628057211637497,6.598419666290282,7.125144481658936,7,1,1,4
1509323177984.0,0.14365209639072418,6.9240312576293945,6.646304130554199,7,1,1,4
1509323177984.0,-0.7182605266571045,6.5696892738342285,6.914454460144043,7,1,1,4
1509323177984.0,-0.3064578175544739,6.655880928039551,6.703764915466309,7,1,1,4
1509323177984.0,0.3830722570419312,6.809109687805176,7.038952827453612,7,1,1,4
1509323177984.0,-0.4596867263317108,6.27280855178833,7.307103633880615,7,1,1,4
1509323177984.0,0.6320692300796509,6.837840080261231,6.722918510437013,7,1,1,4
1509323177984.0,0.4788403511047363,6.627150535583496,6.703764915466309,7,1,1,4
1509323177984.0,-0.06703764945268631,6.607996463775635,7.546523571014403,7,1,1,4
1509323177984.0,1.0342950820922852,7.15387487411499,6.205770969390869,7,1,1,4
1509323177984.0,-0.2585737705230713,6.703764915466309,6.703764915466309,7,1,1,4
1509323177984.0,0.4118026793003082,6.943184852600098,6.33026933670044,7,1,1,4
1509323177984.0,0.23942017555236814,7.46033239364624,6.387730121612549,7,1,1,4
1509323177984.0,-1.0342950820922852,6.991068840026856,6.167463779449463,7,1,1,4
1509323177984.0,-0.5171475410461426,6.742072105407715,5.870582580566406,7,1,1,4
1509323177984.0,-0.3447650372982025,7.048529624938965,6.167463779449463,7,1,1,4
1509323177984.0,-1.8387469053268437,6.368576526641847,6.818686485290527,7,1,1,4
1509323177984.0,-0.6033388376235962,6.732495307922362,6.301538944244385,7,1,1,4
1509323177984.0,-1.2832920551300049,6.33026933670044,7.125144481658936,7,1,1,4
1509323177984.0,-1.0534487962722778,6.234501361846924,6.426037311553955,7,1,1,4
1509323177984.0,-0.5841852426528931,6.828263282775879,7.450755596160889,7,1,1,4
1509323177984.0,-0.06703764945268631,6.464344501495361,6.703764915466309,7,1,1,4
1509323177984.0,0.7852981686592102,6.971915245056152,6.540958881378174,7,1,1,4
1509323177984.0,0.9576807022094728,7.27837324142456,6.004657745361327,8,1,1,4
1509323177984.0,1.37906014919281,7.316680431365968,6.2823853492736825,8,1,1,4
1509323177984.0,0.7565677165985107,6.991068840026856,6.33026933670044,8,1,1,4
1509323177984.0,1.1204863786697388,6.406883716583253,7.58483076095581,8,1,1,4
1509323177984.0,0.6991068720817566,6.799532890319824,5.947196960449219,8,1,1,4
1509323177984.0,0.6512228846549988,6.71334171295166,6.2632317543029785,8,1,1,4
1509323177984.0,0.4788403511047363,6.646304130554199,7.1730284690856925,8,1,1,4
1509323177984.0,0.8810662031173706,7.345410823822021,5.2480902671813965,8,1,1,4
1509323177984.0,1.168370485305786,6.866570472717285,6.387730121612549,8,1,1,4
1509323177984.0,1.3024457693099976,6.914454460144043,6.6846113204956055,8,1,1,4
1509323177984.0,1.781286120414734,7.115567684173584,6.349422931671143,8,1,1,4
1509323177984.0,1.9632453918457031,6.780379295349121,7.4316020011901855,8,1,1,4
1509323177984.0,2.078166961669922,7.422025203704834,5.602431774139403,8,1,1,4
1509323177984.0,2.5282769203186035,7.556100368499756,4.845864295959473,8,1,1,4
1509323177984.0,1.158793568611145,8.753201484680176,3.562572240829468,8,1,1,4
1509323177984.0,1.0630255937576294,7.8338279724121085,5.832275390625,8,1,1,4
1509323177984.0,1.5610195398330688,7.422025203704834,7.010222434997559,8,1,1,4
1509323177984.0,1.6184803247451782,7.2113356590271,6.45476770401001,8,1,1,4
1509323177984.0,1.235408067703247,7.134721279144287,6.2823853492736825,8,1,1,4
1509323177984.0,1.8770540952682493,7.565677165985107,4.654327869415283,8,1,1,4
1509323177984.0,1.292868971824646,6.6846113204956055,7.565677165985107,8,1,1,4
1509323177984.0,1.6663644313812256,7.603984832763673,5.343858242034912,8,1,1,4
1509323177984.0,1.4460978507995603,7.182605266571045,6.943184852600098,8,1,1,4
1509323177984.0,1.7621324062347412,8.015787124633789,4.970362663269043,8,1,1,4
1509323177984.0,2.106897592544556,7.7763671875,5.803544998168945,8,1,1,4
1509323177984.0,1.321599364280701,7.8338279724121085,3.9935283660888667,8,1,1,4
1509323177984.0,1.7525556087493896,6.885724067687987,7.2113356590271,8,1,1,4
1509323177984.0,1.417367458343506,7.33583402633667,5.95677375793457,8,1,1,4
1509323177984.0,0.871489405632019,6.694188117980957,7.27837324142456,8,1,1,4
1509323177984.0,1.1875240802764893,7.747636795043945,4.721365928649902,8,1,1,4
1509323177984.0,1.1013327836990356,6.933608055114746,7.010222434997559,8,1,1,4
1509323177984.0,1.7621324062347412,7.824251174926758,4.922478675842285,8,1,1,4
1509323177984.0,1.072602391242981,7.2113356590271,6.655880928039551,8,1,1,4
1509323177984.0,1.2545616626739502,7.671022415161133,5.458779811859131,8,1,1,4
1509323177984.0,0.4022258818149567,7.163451671600343,6.1291561126708975,8,1,1,4
1509323177984.0,1.6089035272598269,7.46033239364624,6.818686485290527,8,1,1,4
1509323177984.0,0.3926490843296051,7.3262572288513175,5.755661010742188,8,1,1,4
1509323177984.0,0.7278373241424559,7.7763671875,5.57370138168335,8,1,1,4
1509323177984.0,1.1875240802764893,7.824251174926758,5.506663799285889,8,1,1,4
1509323177984.0,1.072602391242981,7.565677165985107,5.784391403198242,8,1,1,4
1509323177984.0,1.1971008777618408,7.690176010131836,5.200206279754639,8,1,1,4
1509323177984.0,0.8140285611152649,7.230489253997803,6.598419666290282,8,1,1,4
1509323177984.0,1.2449848651885986,7.536946773529053,6.224924564361572,8,1,1,4
1509323177984.0,1.0438719987869265,7.6135616302490225,4.903325080871582,8,1,1,4
1509323177984.0,1.2258312702178955,7.33583402633667,5.851428985595702,8,1,1,4
1509323177984.0,1.2832920551300049,6.732495307922362,7.441178798675537,8,1,1,4
1509323177984.0,1.7142484188079834,8.101978302001951,4.76924991607666,8,1,1,4
1509323177984.0,0.8140285611152649,7.489062786102295,5.631162166595459,8,1,1,4
1509323177984.0,1.4556746482849119,7.4316020011901855,6.473921298980713,8,1,1,4
1509323177984.0,1.2641384601593018,7.450755596160889,6.177040576934815,8,1,1,4
1509323309056.0,0.9959878921508788,6.512228488922119,6.876147270202638,9,1,1,4
1509323309056.0,0.9959878921508788,6.5888428688049325,6.665457725524902,9,1,1,4
1509323309056.0,1.436521053314209,6.5888428688049325,6.665457725524902,9,1,1,4
1509323309056.0,1.8770540952682493,6.971915245056152,6.378153324127197,9,1,1,4
1509323309056.0,1.7525556087493896,6.665457725524902,6.866570472717285,9,1,1,4
1509323309056.0,1.9632453918457031,7.259219646453857,5.181052684783936,9,1,1,4
1509323309056.0,1.9823989868164065,7.402871608734131,6.004657745361327,9,1,1,4
1509323309056.0,1.829170107841492,7.115567684173584,7.3262572288513175,9,1,1,4
1509323309056.0,1.953668594360352,7.412448406219482,5.544970989227295,9,1,1,4
1509323309056.0,1.972822189331055,6.971915245056152,5.525817394256592,9,1,1,4
1509323309056.0,1.5705963373184204,6.751648902893066,6.722918510437013,9,1,1,4
1509323309056.0,1.3311761617660522,6.904877662658691,7.374141216278076,9,1,1,4
1509323309056.0,1.9249382019042969,7.4986395835876465,5.8418521881103525,9,1,1,4
1509323309056.0,1.5897499322891235,6.512228488922119,8.178592681884767,9,1,1,4
1509323309056.0,1.580173134803772,7.07726001739502,5.1618990898132315,9,1,1,4
1509323309056.0,1.8770540952682493,7.201758861541747,5.70777702331543,9,1,1,4
1509323309056.0,1.6663644313812256,7.1730284690856925,5.95677375793457,9,1,1,4
1509323309056.0,1.8004397153854368,7.345410823822021,5.95677375793457,9,1,1,4
1509323309056.0,1.6950948238372805,7.27837324142456,5.679046630859375,9,1,1,4
1509323309056.0,1.417367458343506,6.991068840026856,6.196194171905518,9,1,1,4
1509323309056.0,1.4939818382263184,6.914454460144043,7.422025203704834,9,1,1,4
1509323309056.0,1.7908629179000854,7.58483076095581,5.544970989227295,9,1,1,4
1509323309056.0,1.915361404418945,7.134721279144287,6.301538944244385,9,1,1,4
1509323309056.0,2.106897592544556,7.603984832763673,4.367023944854736,9,1,1,4
1509323309056.0,1.944091796875,6.962338447570801,5.9759273529052725,9,1,1,4
1509323309056.0,2.011129379272461,6.646304130554199,7.230489253997803,9,1,1,4
1509323309056.0,1.9249382019042969,6.837840080261231,5.880159378051758,9,1,1,4
1509323309056.0,1.8483237028121948,6.512228488922119,7.6997528076171875,9,1,1,4
1509323309056.0,2.164358377456665,7.15387487411499,5.056553840637207,9,1,1,4
1509323309056.0,1.8770540952682493,6.291962146759032,7.364564418792725,9,1,1,4
1509323309056.0,2.0207061767578125,6.6846113204956055,7.240066051483153,9,1,1,4
1509323309056.0,1.781286120414734,6.856993675231934,6.531382083892822,9,1,1,4
1509323309056.0,1.599326729774475,6.818686485290527,7.058106422424316,9,1,1,4
1509323309056.0,2.547430515289306,7.565677165985107,4.76924991607666,9,1,1,4
1509323309056.0,1.8387469053268437,6.809109687805176,6.751648902893066,9,1,1,4
1509323309056.0,2.2218191623687744,6.560112476348878,6.952761650085449,9,1,1,4
1509323309056.0,2.499546527862549,7.489062786102295,4.38617753982544,9,1,1,4
1509323309056.0,2.547430515289306,6.943184852600098,6.962338447570801,9,1,1,4
1509323309056.0,2.719813108444214,7.642292022705077,5.305551052093506,9,1,1,4
1509323309056.0,2.729389905929565,7.536946773529053,5.65031623840332,9,1,1,4
1509323309056.0,1.5610195398330688,7.527369976043701,5.9950809478759775,9,1,1,4
1509323309056.0,1.37906014919281,7.182605266571045,5.7748146057128915,9,1,1,4
1509323309056.0,2.1164743900299072,7.345410823822021,6.962338447570801,9,1,1,4
1509323309056.0,2.0590133666992188,7.393294811248778,4.999093055725098,9,1,1,4
1509323309056.0,2.8443117141723637,6.167463779449463,6.971915245056152,9,1,1,4
1509323309056.0,3.0837318897247314,6.033388137817383,7.230489253997803,9,1,1,4
1509323309056.0,3.160346269607544,6.828263282775879,5.535394191741943,9,1,1,4
1509323309056.0,3.399766445159912,6.665457725524902,6.617573261260986,9,1,1,4
1509323309056.0,3.25611424446106,7.125144481658936,4.750096321105957,9,1,1,4
1509323309056.0,3.2369606494903564,6.646304130554199,6.320692539215088,9,1,1,4
1509323309056.0,3.1699230670928955,7.1921820640563965,5.228936672210693,10,1,1,4
1509323309056.0,2.978386878967285,7.230489253997803,5.420472621917725,10,1,1,4
1509323309056.0,3.0837318897247314,6.646304130554199,6.378153324127197,10,1,1,4
1509323309056.0,3.0837318897247314,7.565677165985107,4.38617753982544,10,1,1,4
1509323309056.0,3.07415509223938,6.655880928039551,7.2113356590271,10,1,1,4
1509323309056.0,2.7772738933563232,7.316680431365968,4.702212333679199,10,1,1,4
1509323309056.0,2.815581083297729,7.07726001739502,5.458779811859131,10,1,1,4
1509323309056.0,2.9879636764526367,6.320692539215088,7.15387487411499,10,1,1,4
1509323309056.0,2.595314741134644,6.9240312576293945,5.343858242034912,10,1,1,4
1509323309056.0,2.9017724990844727,6.320692539215088,7.824251174926758,10,1,1,4
1509323309056.0,2.6431987285614014,7.2113356590271,5.7365074157714835,10,1,1,4
1509323309056.0,2.9688100814819336,6.607996463775635,7.51779317855835,10,1,1,4
1509323309056.0,2.7006595134735107,7.489062786102295,4.63517427444458,10,1,1,4
1509323309056.0,2.738966703414917,5.8418521881103525,7.6805992126464835,10,1,1,4
1509323309056.0,2.834734916687012,6.943184852600098,5.793968200683594,10,1,1,4
1509323309056.0,2.8634653091430664,7.07726001739502,5.9280433654785165,10,1,1,4
1509323309056.0,2.786850690841675,7.105990409851074,5.679046630859375,10,1,1,4
1509323309056.0,2.882618904113769,6.971915245056152,6.110002517700195,10,1,1,4
1509323309056.0,3.1411926746368413,7.249642848968506,5.592854976654053,10,1,1,4
1509323309056.0,3.026270866394043,6.847416877746582,6.244078159332275,10,1,1,4
1509323309056.0,3.1316158771514893,6.971915245056152,5.6694698333740225,10,1,1,4
1509323309056.0,2.9688100814819336,6.732495307922362,6.828263282775879,10,1,1,4
1509323309056.0,3.160346269607544,7.125144481658936,5.535394191741943,10,1,1,4
1509323309056.0,3.1220390796661377,6.426037311553955,6.876147270202638,10,1,1,4
1509323309056.0,2.9879636764526367,6.799532890319824,5.477933406829834,10,1,1,4
1509323309056.0,3.1699230670928955,5.870582580566406,7.728483200073242,10,1,1,4
1509323309056.0,3.00711727142334,6.818686485290527,5.8418521881103525,10,1,1,4
1509323309056.0,3.112462282180786,6.550535678863525,6.157886981964111,10,1,1,4
1509323309056.0,2.978386878967285,6.378153324127197,6.004657745361327,10,1,1,4
1509323309056.0,3.19865345954895,6.742072105407715,5.363011837005615,10,1,1,4
1509323309056.0,3.2082302570343018,6.6846113204956055,6.157886981964111,10,1,1,4
1509323309056.0,3.1507694721221924,6.799532890319824,5.640739440917969,10,1,1,4
1509323309056.0,2.9113492965698238,6.646304130554199,6.244078159332275,10,1,1,4
1509323309056.0,3.112462282180786,6.885724067687987,5.803544998168945,10,1,1,4
1509323309056.0,3.093308687210083,6.6846113204956055,6.215347766876222,10,1,1,4
1509323309056.0,2.7772738933563232,7.287950038909912,5.20978307723999,10,1,1,4
1509323309056.0,2.930502891540528,7.27837324142456,5.430049419403076,10,1,1,4
1509323309056.0,2.537853717803955,7.1921820640563965,5.564124584197998,10,1,1,4
1509323309056.0,2.604891538619995,7.450755596160889,4.5585598945617685,10,1,1,4
1509323309056.0,3.160346269607544,6.703764915466309,6.89530086517334,10,1,1,4
1509323309056.0,3.0358476638793945,7.402871608734131,5.008669853210449,10,1,1,4
1509323309056.0,3.07415509223938,7.316680431365968,6.023811340332031,10,1,1,4
1509323309056.0,3.07415509223938,7.4316020011901855,5.602431774139403,10,1,1,4
1509323309056.0,3.0550012588500977,7.163451671600343,6.426037311553955,10,1,1,4
1509323309056.0,2.547430515289306,7.15387487411499,5.9950809478759775,10,1,1,4
1509323309056.0,1.9632453918457031,6.847416877746582,6.789956092834473,10,1,1,4
1509323309056.0,1.2641384601593018,7.1921820640563965,6.349422931671143,10,1,1,4
1509323309056.0,1.4556746482849119,7.603984832763673,5.420472621917725,10,1,1,4
1509323309056.0,1.4077905416488647,7.575253963470459,5.343858242034912,10,1,1,4
1509323309056.0,1.3886369466781616,6.866570472717285,7.048529624938965,10,1,1,4
1509323309056.0,1.4077905416488647,7.738059997558594,4.702212333679199,11,1,1,4
1509323309056.0,1.3311761617660522,7.029376029968263,6.0429649353027335,11,1,1,4
1509323309056.0,1.6663644313812256,7.546523571014403,5.4013190269470215,11,1,1,4
1509323309056.0,1.4652514457702637,7.010222434997559,7.096413612365723,11,1,1,4
1509323309056.0,1.8100165128707888,7.738059997558594,4.711789131164551,11,1,1,4
1509323309056.0,1.6950948238372805,6.904877662658691,6.991068840026856,11,1,1,4
1509323309056.0,1.81959331035614,7.374141216278076,5.8226985931396475,11,1,1,4
1509323309056.0,1.4844050407409668,7.134721279144287,6.090848922729492,11,1,1,4
1509323309056.0,1.9345149993896484,7.7859439849853525,4.587290287017822,11,1,1,4
1509323309056.0,1.656787633895874,7.4316020011901855,5.525817394256592,11,1,1,4
1509323309056.0,1.7334020137786863,7.393294811248778,5.9280433654785165,11,1,1,4
1509323309056.0,1.4460978507995603,8.08282470703125,4.089296340942384,11,1,1,4
1509323309056.0,1.2641384601593018,6.876147270202638,6.253654956817628,11,1,1,4
1509323309056.0,1.50355863571167,7.623138427734375,4.587290287017822,11,1,1,4
1509323309056.0,1.6759412288665771,8.063671112060549,4.960785865783691,11,1,1,4
1509323309056.0,1.9345149993896484,7.556100368499756,6.876147270202638,11,1,1,4
1509323309056.0,1.8866308927536009,8.130708694458008,4.6255974769592285,11,1,1,4
1509323309056.0,1.599326729774475,7.1921820640563965,5.497087001800537,11,1,1,4
1509323309056.0,1.723825216293335,7.038952827453612,7.07726001739502,11,1,1,4
1509323309056.0,1.4556746482849119,7.948749542236327,4.357447147369385,11,1,1,4
1509323309056.0,1.417367458343506,7.096413612365723,6.493074893951416,11,1,1,4
1509323309056.0,1.7046716213226318,8.121131896972656,3.878606796264648,11,1,1,4
1509323309056.0,1.5418659448623655,7.412448406219482,6.167463779449463,11,1,1,4
1509323309056.0,1.5131354331970217,7.489062786102295,5.784391403198242,11,1,1,4
1509323309056.0,1.6184803247451782,7.469909191131593,5.95677375793457,11,1,1,4
1509323309056.0,1.4460978507995603,7.182605266571045,7.297526836395264,11,1,1,4
1509323309056.0,1.6663644313812256,8.293514251708983,4.108449935913087,11,1,1,4
1509323309056.0,1.235408067703247,6.962338447570801,6.636727333068848,11,1,1,4
1509323309056.0,1.9345149993896484,8.101978302001951,3.964797973632813,11,1,1,4
1509323309056.0,1.1492167711257937,6.847416877746582,6.617573261260986,11,1,1,4
1509323309056.0,1.6280571222305298,7.8721351623535165,3.687070608139038,11,1,1,4
1509323309056.0,1.3503297567367554,6.847416877746582,7.412448406219482,11,1,1,4
1509323309056.0,2.1356279850006104,8.255207061767576,4.8267107009887695,11,1,1,4
1509323309056.0,1.8962076902389529,6.531382083892822,7.9870567321777335,11,1,1,4
1509323309056.0,1.8004397153854368,7.1921820640563965,5.535394191741943,11,1,1,4
1509323309056.0,1.7908629179000854,7.134721279144287,6.5696892738342285,11,1,1,4
1509323309056.0,1.742978811264038,6.742072105407715,6.828263282775879,11,1,1,4
1509323309056.0,1.7525556087493896,6.5888428688049325,6.751648902893066,11,1,1,4
1509323309056.0,1.9823989868164065,6.426037311553955,6.89530086517334,11,1,1,4
1509323309056.0,1.81959331035614,6.512228488922119,6.636727333068848,11,1,1,4
1509323309056.0,1.81959331035614,6.655880928039551,6.847416877746582,11,1,1,4
1509323309056.0,1.8004397153854368,6.521805286407472,6.981492042541504,11,1,1,4
1509323309056.0,1.944091796875,7.000645637512207,6.751648902893066,11,1,1,4
1509323309056.0,1.7334020137786863,6.502651691436768,6.837840080261231,11,1,1,4
1509323309056.0,1.436521053314209,6.732495307922362,6.157886981964111,11,1,1,4
1509323309056.0,1.273715257644653,6.100425720214844,7.709329605102539,11,1,1,4
1509323309056.0,1.5610195398330688,7.086836814880371,5.305551052093506,11,1,1,4
1509323309056.0,1.8387469053268437,6.368576526641847,8.283937454223633,11,1,1,4
1509323309056.0,1.5131354331970217,7.90086555480957,3.2944214344024663,11,1,1,4
1509323309056.0,1.3024457693099976,6.311115741729736,7.661445617675781,11,1,1,4
1509323309056.0,1.580173134803772,7.393294811248778,5.6694698333740225,12,1,1,4
1509323309056.0,1.6855180263519287,6.57926607131958,8.130708694458008,12,1,1,4
1509323309056.0,1.1875240802764893,7.048529624938965,6.655880928039551,12,1,1,4
1509323309056.0,1.417367458343506,7.412448406219482,6.0621185302734375,12,1,1,4
1509323309056.0,1.3407529592514038,7.565677165985107,5.066130638122559,12,1,1,4
1509323309056.0,1.2066776752471924,6.799532890319824,6.0621185302734375,12,1,1,4
1509323309056.0,1.5610195398330688,6.904877662658691,6.694188117980957,12,1,1,4
1509323309056.0,1.4460978507995603,7.307103633880615,5.698200225830077,12,1,1,4
1509323309056.0,1.417367458343506,7.3262572288513175,5.861005783081055,12,1,1,4
1509323309056.0,1.599326729774475,6.9240312576293945,7.01979923248291,12,1,1,4
1509323309056.0,1.4652514457702637,6.71334171295166,7.2113356590271,12,1,1,4
1509323309056.0,1.5610195398330688,7.240066051483153,5.104437828063965,12,1,1,4
1509323309056.0,1.7046716213226318,6.138733386993407,8.389283180236816,12,1,1,4
1509323309056.0,1.8866308927536009,7.240066051483153,4.9799394607543945,12,1,1,4
1509323309056.0,1.7908629179000854,6.253654956817628,8.197746276855469,12,1,1,4
1509323309056.0,1.723825216293335,7.1730284690856925,5.679046630859375,12,1,1,4
1509323309056.0,1.944091796875,6.052541732788086,7.891288757324219,12,1,1,4
1509323309056.0,1.436521053314209,6.550535678863525,5.439626216888428,12,1,1,4
1509323309056.0,1.829170107841492,5.966350555419923,7.07726001739502,12,1,1,4
1509323309056.0,1.9057846069335935,6.636727333068848,5.966350555419923,12,1,1,4
1509323309056.0,1.5131354331970217,5.918466567993164,7.565677165985107,12,1,1,4
1509323309056.0,1.742978811264038,6.789956092834473,5.937620162963867,12,1,1,4
1509323309056.0,2.030282974243164,6.493074893951416,7.709329605102539,12,1,1,4
1509323309056.0,1.3694833517074585,7.163451671600343,5.803544998168945,12,1,1,4
1509323309056.0,1.216254472732544,6.540958881378174,7.067683219909668,12,1,1,4
1509323309056.0,1.580173134803772,7.441178798675537,5.152322292327881,12,1,1,4
1509323309056.0,1.3886369466781616,7.038952827453612,6.464344501495361,12,1,1,4
1509323309056.0,1.4939818382263184,7.623138427734375,5.6215853691101065,12,1,1,4
1509323309056.0,1.4269442558288574,6.627150535583496,7.805097579956055,12,1,1,4
1509323309056.0,1.37906014919281,7.412448406219482,5.918466567993164,12,1,1,4
1509323309056.0,1.1109095811843872,6.2823853492736825,7.556100368499756,12,1,1,4
1509323309056.0,1.216254472732544,6.837840080261231,6.138733386993407,12,1,1,4
1509323309056.0,1.580173134803772,6.943184852600098,6.2823853492736825,12,1,1,4
1509323309056.0,1.436521053314209,6.617573261260986,6.531382083892822,12,1,1,4
1509323309056.0,1.273715257644653,6.464344501495361,7.01979923248291,12,1,1,4
1509323309056.0,1.3982137441635132,6.818686485290527,6.416460514068604,12,1,1,4
1509323309056.0,1.1971008777618408,6.866570472717285,5.9280433654785165,12,1,1,4
1509323309056.0,1.522712230682373,6.818686485290527,6.2823853492736825,12,1,1,4
1509323309056.0,1.7717092037200928,6.665457725524902,7.259219646453857,12,1,1,4
1509323309056.0,1.723825216293335,7.067683219909668,6.224924564361572,12,1,1,4
1509323309056.0,1.5897499322891235,6.732495307922362,7.508216381072997,12,1,1,4
1509323309056.0,1.3311761617660522,7.201758861541747,6.052541732788086,12,1,1,4
1509323309056.0,1.7046716213226318,6.818686485290527,6.837840080261231,12,1,1,4
1509323309056.0,1.6663644313812256,7.450755596160889,5.343858242034912,12,1,1,4
1509323309056.0,1.656787633895874,7.201758861541747,6.636727333068848,12,1,1,4
1509323309056.0,1.7525556087493896,8.35097599029541,4.1180267333984375,12,1,1,4
1509323309056.0,1.742978811264038,7.402871608734131,6.540958881378174,12,1,1,4
1509323309056.0,1.5131354331970217,8.130708694458008,3.466804027557373,12,1,1,4
1509323309056.0,1.742978811264038,7.8338279724121085,5.171475887298584,12,1,1,4
1509323309056.0,1.6855180263519287,7.7667903900146475,5.228936672210693,12,1,1,4
1509425414144.0,3.2747955322265625,2.731781005859375,11.310806274414062,13,1,1,4
1509425414144.0,0.02984619140625,1.72064208984375,10.355514526367188,13,1,1,4
1509425414144.0,0.65313720703125,1.7318115234375,6.824066162109375,13,1,1,4
1509425414144.0,2.7360992431640625,3.845901489257813,6.6405181884765625,13,1,1,4
1509425414144.0,2.1750640869140625,4.16192626953125,10.468048095703123,13,1,1,4
1509425414144.0,1.47674560546875,4.5872955322265625,9.49200439453125,13,1,1,4
1509425414144.0,2.3650054931640625,3.33831787109375,10.789657592773438,13,1,1,4
1509425414144.0,2.813507080078125,2.7796783447265625,9.0147705078125,13,1,1,4
1509425414144.0,1.2684478759765625,1.9105682373046875,8.381088256835938,13,1,1,4
1509425414144.0,1.6738739013671875,3.451644897460937,7.0850372314453125,13,1,1,4
1509425414144.0,3.0840606689453125,3.807586669921875,10.131256103515623,13,1,1,4
1509425414144.0,4.6235198974609375,4.932861328125,10.8016357421875,13,1,1,4
1509425414144.0,2.527801513671875,3.7884368896484375,6.630142211914063,13,1,1,4
1509425414144.0,3.108001708984375,2.2521514892578125,7.307693481445312,13,1,1,4
1509425414144.0,3.888504028320313,4.024658203125,5.91986083984375,13,1,1,4
1509425414144.0,3.036163330078125,5.118011474609375,9.76654052734375,13,1,1,4
1509425414144.0,4.629119873046875,4.873809814453125,10.44329833984375,13,1,1,4
1509425414144.0,3.149505615234375,3.677490234375,7.17681884765625,13,1,1,4
1509425414144.0,0.740936279296875,1.6615753173828125,6.5216064453125,13,1,1,4
1509425414144.0,0.08172607421875,3.016708374023437,8.515975952148438,13,1,1,4
1509425414144.0,3.0633087158203125,3.839508056640625,9.373886108398438,13,1,1,4
1509425414144.0,2.98748779296875,2.64080810546875,11.389007568359375,13,1,1,4
1509425414144.0,1.6946258544921875,0.004791259765625,10.86627197265625,13,1,1,4
1509425414144.0,2.7408905029296875,1.683929443359375,6.4409942626953125,13,1,1,4
1509425414144.0,3.332260131835937,2.90496826171875,7.7881317138671875,13,1,1,4
1509425414144.0,3.8813323974609375,2.9704132080078125,11.096115112304688,13,1,1,4
1509425414144.0,3.552520751953125,2.26092529296875,11.841522216796875,13,1,1,4
1509425414144.0,2.0553436279296875,1.705474853515625,8.239837646484375,13,1,1,4
1509425414144.0,2.1774444580078125,1.146026611328125,7.669219970703125,13,1,1,4
1509425414144.0,-0.610198974609375,3.429306030273437,7.063491821289063,13,1,1,4
1509425414144.0,0.7808380126953125,5.349456787109375,8.674789428710938,13,1,1,4
1509425414144.0,2.063323974609375,2.392608642578125,13.931655883789062,13,1,1,4
1509425414144.0,0.5166778564453125,2.1938934326171875,9.507965087890623,13,1,1,4
1509425414144.0,0.4296875,3.0669708251953125,3.916717529296875,13,1,1,4
1509425414144.0,3.455963134765625,4.26727294921875,7.659637451171875,13,1,1,4
1509425414144.0,2.25885009765625,4.03582763671875,13.244522094726562,13,1,1,4
1509425414144.0,2.3091278076171875,1.2689361572265625,10.472824096679688,13,1,1,4
1509425414144.0,0.8837890625,3.3558807373046875,6.022003173828125,13,1,1,4
1509425414144.0,0.99072265625,3.742141723632813,6.757827758789063,13,1,1,4
1509425414144.0,1.575714111328125,4.315948486328125,8.567840576171875,13,1,1,4
1509425414144.0,2.1710662841796875,4.420501708984375,11.515899658203125,13,1,1,4
1509425414144.0,0.9133148193359376,0.9991912841796876,13.641159057617188,13,1,1,4
1509425414144.0,-0.0786895751953125,3.9249114990234375,4.70599365234375,13,1,1,4
1509425414144.0,2.473541259765625,4.255294799804688,6.199188232421875,13,1,1,4
1509425414144.0,3.3593902587890625,6.08447265625,8.316452026367188,13,1,1,4
1509425414144.0,2.2708282470703125,3.2457427978515625,14.64752197265625,13,1,1,4
1509425414144.0,2.45758056640625,2.659164428710937,6.180831909179688,13,1,1,4
1509425414144.0,3.206161499023437,2.8706512451171875,6.7562408447265625,13,1,1,4
1509425414144.0,1.282012939453125,4.060562133789063,7.215118408203125,13,1,1,4
1509425414144.0,3.3897247314453125,4.93206787109375,8.66680908203125,13,1,1,4
1509425414144.0,3.49505615234375,0.2960968017578125,12.338714599609375,14,1,1,4
1509425414144.0,1.323516845703125,2.549835205078125,6.62774658203125,14,1,1,4
1509425414144.0,3.561309814453125,3.688674926757813,6.78656005859375,14,1,1,4
1509425414144.0,4.7528076171875,6.559326171875,4.739517211914063,14,1,1,4
1509425414144.0,4.354583740234375,6.469940185546875,11.807998657226562,14,1,1,4
1509425414144.0,2.115997314453125,3.90814208984375,7.8543701171875,14,1,1,4
1509425414144.0,5.033737182617188,4.0789337158203125,4.310150146484375,14,1,1,4
1509425414144.0,2.897308349609375,4.462799072265625,6.1640625,14,1,1,4
1509425414144.0,2.258056640625,6.099639892578125,7.82244873046875,14,1,1,4
1509425414144.0,5.339385986328125,5.0094757080078125,11.665145874023438,14,1,1,4
1509425414144.0,4.602783203125,3.1076812744140625,8.597381591796875,14,1,1,4
1509425414144.0,1.5413970947265625,4.3558502197265625,5.102630615234375,14,1,1,4
1509425414144.0,3.8502044677734375,6.016632080078125,4.982925415039063,14,1,1,4
1509425414144.0,6.33697509765625,6.684616088867188,7.3484039306640625,14,1,1,4
1509425414144.0,5.526947021484375,4.3079681396484375,11.484786987304688,14,1,1,4
1509425414144.0,4.617950439453125,2.7557373046875,6.989273071289063,14,1,1,4
1509425414144.0,2.907684326171875,3.141998291015625,5.6277618408203125,14,1,1,4
1509425414144.0,1.819122314453125,4.511474609375,6.020416259765625,14,1,1,4
1509425414144.0,3.49267578125,6.481903076171875,6.1864166259765625,14,1,1,4
1509425414144.0,4.683380126953125,2.3447265625,12.56536865234375,14,1,1,4
1509425414144.0,-1.8759307861328125,2.6535797119140625,9.310043334960938,14,1,1,4
1509425414144.0,1.1678924560546875,2.828353881835937,5.5998382568359375,14,1,1,4
1509425414144.0,3.37615966796875,4.6703033447265625,6.4713134765625,14,1,1,4
1509425414144.0,1.2987823486328125,5.002288818359375,13.754486083984375,14,1,1,4
1509425414144.0,1.9635772705078125,0.7988739013671875,13.375396728515625,14,1,1,4
1509425414144.0,-0.0794830322265625,3.430892944335937,4.6142120361328125,14,1,1,4
1509425414144.0,1.8949432373046875,4.008697509765625,5.8847503662109375,14,1,1,4
1509425414144.0,0.9779510498046876,3.9576263427734375,8.936553955078125,14,1,1,4
1509425414144.0,3.1949920654296875,4.5322265625,9.235031127929688,14,1,1,4
1509425414144.0,2.581268310546875,-0.099761962890625,12.341903686523438,14,1,1,4
1509425414144.0,0.7233734130859375,1.28887939453125,6.9908599853515625,14,1,1,4
1509425414144.0,3.1678466796875,3.415740966796875,5.369186401367188,14,1,1,4
1509425414144.0,2.1591033935546875,4.125213623046875,11.755325317382812,14,1,1,4
1509425414144.0,1.17108154296875,1.6863250732421875,14.59405517578125,14,1,1,4
1509425414144.0,1.9109039306640625,0.955291748046875,7.673202514648437,14,1,1,4
1509425414144.0,1.9388275146484373,0.46368408203125,6.697174072265625,14,1,1,4
1509425414144.0,0.2900238037109375,2.225814819335937,7.90704345703125,14,1,1,4
1509425414144.0,1.85662841796875,3.392578125,9.90460205078125,14,1,1,4
1509425414144.0,2.657089233398437,0.2490081787109375,14.550949096679688,14,1,1,4
1509425414144.0,1.7792205810546875,-1.0502471923828125,9.373886108398438,14,1,1,4
1509425414144.0,0.0314483642578125,2.0247039794921875,5.6700592041015625,14,1,1,4
1509425414144.0,2.1862335205078125,3.3375244140625,7.472900390625,14,1,1,4
1509425414144.0,5.4559173583984375,2.0518341064453125,11.5733642578125,14,1,1,4
1509425414144.0,3.3474273681640625,0.1484527587890625,13.260482788085938,14,1,1,4
1509425414144.0,1.61322021484375,1.9305267333984373,7.7929229736328125,14,1,1,4
1509425414144.0,1.3634185791015625,1.59454345703125,7.080245971679688,14,1,1,4
1509425414144.0,1.07611083984375,3.5091094970703125,5.8240814208984375,14,1,1,4
1509425414144.0,3.4431915283203125,4.4276885986328125,8.734649658203125,14,1,1,4
1509425414144.0,3.33624267578125,-1.7892608642578125,17.191757202148438,14,1,1,4
1509425414144.0,-0.2542572021484375,1.24578857421875,6.8520050048828125,14,1,1,4
1509425414144.0,2.60760498046875,2.001556396484375,5.22235107421875,15,1,1,4
1509425414144.0,5.012985229492188,3.9328765869140634,7.986053466796875,15,1,1,4
1509425414144.0,3.542938232421875,2.5905303955078125,14.00189208984375,15,1,1,4
1509425414144.0,2.530990600585937,-0.7102813720703125,10.701873779296877,15,1,1,4
1509425414144.0,1.84625244140625,1.082977294921875,6.0299835205078125,15,1,1,4
1509425414144.0,1.2660675048828125,2.2832794189453125,5.7953643798828125,15,1,1,4
1509425414144.0,2.183837890625,3.426910400390625,9.874282836914062,15,1,1,4
1509425414144.0,3.5110321044921875,2.6392059326171875,12.942840576171875,15,1,1,4
1509425414144.0,3.050537109375,-1.5673980712890625,12.614044189453125,15,1,1,4
1509425414144.0,1.0426025390625,2.412567138671875,5.028411865234375,15,1,1,4
1509425414144.0,3.80950927734375,3.4117431640625,6.128952026367188,15,1,1,4
1509425414144.0,4.7184906005859375,5.2616729736328125,8.101776123046875,15,1,1,4
1509425414144.0,4.9555206298828125,2.1372222900390625,12.615646362304688,15,1,1,4
1509425414144.0,4.18060302734375,1.663970947265625,7.057098388671875,15,1,1,4
1509425414144.0,3.318695068359375,-0.207489013671875,8.07623291015625,15,1,1,4
1509425414144.0,-0.1161956787109375,2.151596069335937,8.055496215820312,15,1,1,4
1509425414144.0,2.4974822998046875,3.4572296142578125,9.82958984375,15,1,1,4
1509425414144.0,2.6602935791015625,3.6567535400390634,12.626815795898438,15,1,1,4
1509425414144.0,-0.379547119140625,2.075775146484375,7.49444580078125,15,1,1,4
1509425414144.0,1.799163818359375,1.3966217041015625,7.0203857421875,15,1,1,4
1509425414144.0,2.5286102294921875,4.262481689453125,7.3795166015625,15,1,1,4
1509425414144.0,5.7775421142578125,5.266448974609375,12.147964477539062,15,1,1,4
1509425414144.0,1.5046844482421875,3.659942626953125,11.041046142578123,15,1,1,4
1509425414144.0,1.025848388671875,2.445281982421875,7.5646820068359375,15,1,1,4
1509425414144.0,-0.24468994140625,2.956039428710937,6.960540771484375,15,1,1,4
1509425414144.0,-0.2071685791015625,4.1012725830078125,7.31329345703125,15,1,1,4
1509425414144.0,2.9906768798828125,4.51226806640625,11.190292358398438,15,1,1,4
1509425414144.0,2.6930084228515625,1.410186767578125,12.790420532226562,15,1,1,4
1509425414144.0,2.0784912109375,2.8834228515625,7.7099151611328125,15,1,1,4
1509425414144.0,2.87176513671875,5.256866455078125,3.774658203125,15,1,1,4
1509425414144.0,4.8709259033203125,6.25286865234375,7.7490234375,15,1,1,4
1509425414144.0,1.507080078125,4.592086791992188,13.730545043945312,15,1,1,4
1509425414144.0,3.14630126953125,2.7014617919921875,6.973312377929688,15,1,1,4
1509425414144.0,2.139144897460937,2.285675048828125,5.961349487304688,15,1,1,4
1509425414144.0,-0.45855712890625,4.145172119140625,7.216720581054687,15,1,1,4
1509425414144.0,1.931640625,5.10205078125,10.089752197265623,15,1,1,4
1509425414144.0,2.178253173828125,1.9991607666015625,12.468002319335938,15,1,1,4
1509425414144.0,-1.350006103515625,1.9632568359375,8.48883056640625,15,1,1,4
1509425414144.0,1.7967681884765625,1.980010986328125,6.9621429443359375,15,1,1,4
1509425414144.0,2.95556640625,4.410125732421875,6.7945404052734375,15,1,1,4
1509425414144.0,2.762435913085937,3.55938720703125,13.22216796875,15,1,1,4
1509425414144.0,1.3817901611328125,-0.3854522705078125,13.8973388671875,15,1,1,4
1509425414144.0,1.7816162109375,2.2250213623046875,6.951751708984375,15,1,1,4
1509425414144.0,1.7113800048828125,2.9496612548828125,6.05792236328125,15,1,1,4
1509425414144.0,1.3314971923828125,4.7413177490234375,6.5630950927734375,15,1,1,4
1509425414144.0,2.456771850585937,6.220947265625,10.4632568359375,15,1,1,4
1509425414144.0,1.2572784423828125,0.881072998046875,12.434478759765625,15,1,1,4
1509425414144.0,-0.0268096923828125,2.8538970947265625,6.697967529296875,15,1,1,4
1509425414144.0,2.126373291015625,3.944854736328125,7.4609222412109375,15,1,1,4
1509425414144.0,2.84942626953125,4.1443634033203125,10.510345458984377,15,1,1,4
1509425414144.0,1.9819183349609373,2.9991455078125,11.074569702148438,16,1,1,4
1509425414144.0,2.8206939697265625,1.8993988037109373,8.702728271484375,16,1,1,4
1509425414144.0,1.924468994140625,1.5650177001953125,7.988449096679687,16,1,1,4
1509425414144.0,1.250091552734375,3.5146942138671875,6.27020263671875,16,1,1,4
1509425414144.0,0.511077880859375,4.77642822265625,9.013961791992188,16,1,1,4
1509425414144.0,2.79754638671875,2.8275604248046875,12.413726806640625,16,1,1,4
1509425414144.0,1.5709228515625,-0.017547607421875,11.570175170898438,16,1,1,4
1509425414144.0,1.1335906982421875,1.5091552734375,6.665252685546875,16,1,1,4
1509425414144.0,2.401702880859375,3.437286376953125,5.77142333984375,16,1,1,4
1509425414144.0,4.1087799072265625,3.797210693359375,11.272491455078125,16,1,1,4
1509425414144.0,4.903656005859375,3.083740234375,12.7249755859375,16,1,1,4
1509425414144.0,3.18701171875,1.410186767578125,9.08978271484375,16,1,1,4
1509425414144.0,1.5310211181640625,1.40380859375,6.135345458984375,16,1,1,4
1509425414144.0,0.16473388671875,3.2633056640625,6.579864501953125,16,1,1,4
1509425414144.0,1.1838531494140625,3.59210205078125,10.94049072265625,16,1,1,4
1509425414144.0,1.560546875,2.0374755859375,13.598861694335938,16,1,1,4
1509425414144.0,-0.060333251953125,0.754974365234375,9.527923583984377,16,1,1,4
1509425414144.0,0.5685577392578125,2.047836303710937,5.8153076171875,16,1,1,4
1509425414144.0,2.146331787109375,3.8570709228515625,5.780197143554688,16,1,1,4
1509425414144.0,4.5205841064453125,3.773269653320313,12.31396484375,16,1,1,4
1509425414144.0,3.900482177734375,0.586578369140625,14.030609130859375,16,1,1,4
1509425414144.0,1.9707489013671875,1.557830810546875,7.575057983398437,16,1,1,4
1509425414144.0,0.2533111572265625,2.107696533203125,5.780197143554688,16,1,1,4
1509425414144.0,0.6906585693359375,3.185089111328125,8.875106811523438,16,1,1,4
1509425414144.0,2.073699951171875,4.730148315429688,8.165618896484375,16,1,1,4
1509425414144.0,4.523773193359375,0.09259033203125,14.641937255859375,16,1,1,4
1509425414144.0,0.0737457275390625,1.833160400390625,8.622116088867188,16,1,1,4
1509425414144.0,1.9220733642578125,2.995956420898437,5.136154174804688,16,1,1,4
1509425414144.0,4.7911224365234375,3.985549926757813,8.67718505859375,16,1,1,4
1509425414144.0,2.296371459960937,2.910552978515625,14.623580932617188,16,1,1,4
1509425414144.0,2.654693603515625,1.7972564697265625,8.01080322265625,16,1,1,4
1509425414144.0,2.6818389892578125,1.41497802734375,6.412261962890625,16,1,1,4
1509425414144.0,1.4017333984375,2.7740936279296875,8.168014526367188,16,1,1,4
1509425414144.0,2.8502197265625,3.995925903320313,9.875076293945312,16,1,1,4
1509425414144.0,2.5884552001953125,2.8762359619140625,11.363479614257812,16,1,1,4
1509425414144.0,0.41851806640625,1.0694122314453125,9.309249877929688,16,1,1,4
1509425414144.0,0.8135528564453125,2.4891815185546875,7.17919921875,16,1,1,4
1509425414144.0,1.14874267578125,4.481948852539063,8.7418212890625,16,1,1,4
1509425414144.0,2.187835693359375,3.6016845703125,10.527099609375,16,1,1,4
1509425414144.0,0.8885650634765625,1.250579833984375,12.447250366210938,16,1,1,4
1509425414144.0,0.7712554931640625,1.7190399169921875,8.564651489257812,16,1,1,4
1509425414144.0,0.7042236328125,2.444488525390625,5.884735107421875,16,1,1,4
1509425414144.0,1.0545654296875,4.018280029296875,8.141677856445312,16,1,1,4
1509425414144.0,1.9915008544921875,2.7270050048828125,11.440887451171875,16,1,1,4
1509425414144.0,0.62042236328125,-0.6216888427734375,12.097702026367188,16,1,1,4
1509425414144.0,0.1431732177734375,0.24102783203125,8.539108276367188,16,1,1,4
1509425414144.0,1.5796966552734375,2.0837554931640625,6.73309326171875,16,1,1,4
1509425414144.0,2.073699951171875,2.434112548828125,10.65399169921875,16,1,1,4
1509425414144.0,1.459197998046875,2.699066162109375,11.6148681640625,16,1,1,4
1509425414144.0,2.359405517578125,1.2370147705078125,9.582977294921877,16,1,1,4
1509425414144.0,1.2133941650390625,1.8028411865234373,8.094589233398438,17,1,1,4
1509425414144.0,1.291595458984375,2.83154296875,7.50482177734375,17,1,1,4
1509425414144.0,1.0888824462890625,2.512313842773437,9.585372924804688,17,1,1,4
1509425414144.0,2.2500762939453125,2.1029052734375,11.021102905273438,17,1,1,4
1509425414144.0,2.167083740234375,2.021514892578125,10.879837036132812,17,1,1,4
1509425414144.0,0.140777587890625,2.168365478515625,7.34521484375,17,1,1,4
1509425414144.0,1.863006591796875,3.766082763671875,7.235870361328125,17,1,1,4
1509425414144.0,1.7728271484375,4.727752685546875,8.502410888671875,17,1,1,4
1509425414144.0,0.5645599365234375,4.697433471679688,11.566986083984375,17,1,1,4
1509425414144.0,3.05133056640625,3.290435791015625,8.283721923828125,17,1,1,4
1509425414144.0,1.6052398681640625,2.059814453125,8.04351806640625,17,1,1,4
1509425414144.0,1.4360504150390625,2.7796783447265625,7.5120086669921875,17,1,1,4
1509425414144.0,1.6738739013671875,3.6256256103515625,9.2374267578125,17,1,1,4
1509425414144.0,2.4128875732421875,2.6847076416015625,10.582962036132812,17,1,1,4
1509425414144.0,1.7959747314453125,-0.6855316162109375,14.197418212890625,17,1,1,4
1509425414144.0,0.7018280029296875,1.6336517333984375,7.836029052734375,17,1,1,4
1509425414144.0,1.4679718017578125,3.699050903320313,6.372360229492188,17,1,1,4
1509425414144.0,2.7305145263671875,4.78521728515625,7.8025054931640625,17,1,1,4
1509425414144.0,1.67706298828125,2.488388061523437,14.080093383789062,17,1,1,4
1509425414144.0,2.127166748046875,0.970458984375,10.089752197265623,17,1,1,4
1509425414144.0,1.36822509765625,1.272918701171875,6.833648681640625,17,1,1,4
1509425414144.0,0.182281494140625,3.090927124023437,5.7642364501953125,17,1,1,4
1509425414144.0,1.090484619140625,4.0262451171875,9.251785278320312,17,1,1,4
1509425414144.0,2.062530517578125,1.9409027099609373,13.033828735351562,17,1,1,4
1509425414144.0,-0.28857421875,0.7884979248046875,9.978836059570312,17,1,1,4
1509425414144.0,0.499114990234375,1.638427734375,7.931793212890625,17,1,1,4
1509425414144.0,1.0721282958984375,4.164321899414063,6.48089599609375,17,1,1,4
1509425414144.0,2.90130615234375,3.334335327148437,11.950851440429688,17,1,1,4
1509425414144.0,1.4320526123046875,1.79486083984375,12.8199462890625,17,1,1,4
1509425414144.0,0.6268157958984375,2.6631622314453125,7.417022705078125,17,1,1,4
1509425414144.0,1.282012939453125,2.6815185546875,5.619781494140625,17,1,1,4
1509425414144.0,0.5166778564453125,2.9759979248046875,9.4808349609375,17,1,1,4
1509425414144.0,1.382568359375,3.82275390625,10.791259765625,17,1,1,4
1509425414144.0,1.0976715087890625,1.4955902099609375,12.063385009765625,17,1,1,4
1509425414144.0,-1.140106201171875,2.1731414794921875,8.672393798828125,17,1,1,4
1509425414144.0,1.0928802490234375,3.3622589111328125,5.474533081054688,17,1,1,4
1509425414144.0,3.371368408203125,3.6759033203125,9.11053466796875,17,1,1,4
1509425414144.0,1.6866455078125,4.0286407470703125,11.976394653320312,17,1,1,4
1509425414144.0,2.1279754638671875,1.8978118896484373,9.916580200195312,17,1,1,4
1509425414144.0,1.566131591796875,2.1563873291015625,7.485671997070312,17,1,1,4
1509425414144.0,0.9133148193359376,2.8969879150390625,6.8272552490234375,17,1,1,4
1509425414144.0,1.3889617919921875,3.267303466796875,9.831985473632812,17,1,1,4
1509425414144.0,1.0457916259765625,3.6431884765625,11.304412841796875,17,1,1,4
1509425414144.0,0.4959259033203125,1.22503662109375,11.305206298828125,17,1,1,4
1509425414144.0,-0.4753265380859375,2.8083953857421875,6.887115478515625,17,1,1,4
1509425414144.0,1.767242431640625,4.0916900634765625,5.508056640625,17,1,1,4
1509425414144.0,3.46392822265625,3.702239990234375,11.600509643554688,17,1,1,4
1509425414144.0,0.8933563232421875,4.177093505859375,11.969207763671875,17,1,1,4
1509425414144.0,1.2101898193359375,2.50274658203125,9.180755615234377,17,1,1,4
1509425414144.0,1.2860107421875,2.03826904296875,6.1935882568359375,17,1,1,4
1509425414144.0,0.6164398193359375,2.968017578125,7.45135498046875,18,1,1,4
1509425414144.0,1.4344482421875,4.44683837890625,9.484024047851562,18,1,1,4
1509425414144.0,0.794403076171875,2.4085693359375,12.637191772460938,18,1,1,4
1509425414144.0,-1.3747406005859375,1.7334136962890625,8.86871337890625,18,1,1,4
1509425414144.0,1.3897552490234375,2.5051422119140625,6.633331298828125,18,1,1,4
1509425414144.0,1.7465057373046875,4.0055084228515625,7.1017913818359375,18,1,1,4
1509425414144.0,1.7321319580078125,4.0142822265625,13.242919921875,18,1,1,4
1509425414144.0,2.0593414306640625,1.3287811279296875,12.686676025390625,18,1,1,4
1509425414144.0,1.6842498779296875,1.8355560302734373,7.1919708251953125,18,1,1,4
1509425414144.0,1.5908660888671875,3.14837646484375,6.358001708984375,18,1,1,4
1509425414144.0,1.0346221923828125,3.849090576171875,9.5877685546875,18,1,1,4
1509425414144.0,0.8861846923828125,5.065338134765625,10.088165283203123,18,1,1,4
1509425414144.0,-0.197601318359375,2.867462158203125,10.736190795898438,18,1,1,4
1509425414144.0,-0.7506561279296875,3.8626556396484375,8.3292236328125,18,1,1,4
1509425414144.0,0.867828369140625,4.3327178955078125,6.590240478515625,18,1,1,4
1509425414144.0,1.58209228515625,3.9727783203125,9.548660278320312,18,1,1,4
1509425414144.0,0.6754913330078125,4.051788330078125,10.83355712890625,18,1,1,4
1509425414144.0,2.9324188232421875,0.5626373291015625,10.203079223632812,18,1,1,4
1509425414144.0,1.9069061279296875,1.2210540771484375,7.964508056640625,18,1,1,4
1509425414144.0,1.2149810791015625,2.8810272216796875,8.132904052734375,18,1,1,4
1509425414144.0,1.81512451171875,4.761276245117188,7.555099487304687,18,1,1,4
1509425414144.0,3.520599365234375,4.895355224609375,8.8367919921875,18,1,1,4
1509425414144.0,2.8294677734375,0.7573699951171875,11.392196655273438,18,1,1,4
1509425414144.0,1.88775634765625,1.3471527099609375,8.279739379882812,18,1,1,4
1509425414144.0,1.829498291015625,4.02545166015625,6.5455474853515625,18,1,1,4
1509425414144.0,3.2604217529296875,5.1212005615234375,9.08819580078125,18,1,1,4
1509425414144.0,2.8669891357421875,3.3247528076171875,11.380233764648438,18,1,1,4
1509425414144.0,4.305099487304688,2.212249755859375,8.49761962890625,18,1,1,4
1509425414144.0,2.70098876953125,1.8658905029296875,8.94293212890625,18,1,1,4
1509425414144.0,1.0497894287109375,3.671920776367188,5.77142333984375,18,1,1,4
1509425414144.0,2.8358612060546875,3.956817626953125,8.76336669921875,18,1,1,4
1509425414144.0,3.1207733154296875,3.8003997802734375,11.333145141601562,18,1,1,4
1509425414144.0,1.9172821044921875,1.071807861328125,10.489593505859377,18,1,1,4
1509425414144.0,1.4520111083984375,3.205047607421875,7.1121673583984375,18,1,1,4
1509425414144.0,2.686614990234375,5.07012939453125,5.9501800537109375,18,1,1,4
1509425414144.0,3.55731201171875,5.2888031005859375,9.64923095703125,18,1,1,4
1509425414144.0,2.8462371826171875,3.9743804931640634,12.240554809570312,18,1,1,4
1509425414144.0,2.2069854736328125,2.6312408447265625,8.515167236328125,18,1,1,4
1509425414144.0,1.3905487060546875,3.1499786376953125,5.5120391845703125,18,1,1,4
1509425414144.0,1.2716522216796875,3.544219970703125,7.5782470703125,18,1,1,4
1509425414144.0,2.7017822265625,5.1004486083984375,9.299667358398438,18,1,1,4
1509425414144.0,2.3035430908203125,3.2545166015625,12.347488403320312,18,1,1,4
1509425414144.0,-1.1369171142578125,2.08935546875,8.914215087890625,18,1,1,4
1509425414144.0,1.3107452392578125,3.955230712890625,5.1784515380859375,18,1,1,4
1509425414144.0,2.380157470703125,5.797164916992188,6.1417236328125,18,1,1,4
1509425414144.0,2.1024322509765625,5.21856689453125,12.495132446289062,18,1,1,4
1509425414144.0,2.451995849609375,2.9249267578125,10.001968383789062,18,1,1,4
1509425414144.0,-0.11859130859375,3.9967193603515625,6.982086181640625,18,1,1,4
1509425414144.0,0.6802825927734375,4.9089202880859375,6.359588623046875,18,1,1,4
1509425414144.0,1.0354156494140625,3.59210205078125,8.902236938476562,18,1,1,4
1509145575424.0,-0.6607996821403503,2.7102363109588623,9.366117477416992,19,1,0,3
1509145575424.0,-0.545877993106842,2.7772738933563232,9.375694274902344,19,1,0,3
1509145575424.0,-0.2777273952960968,2.873042106628418,9.260771751403807,19,1,0,3
1509145575424.0,-0.2585737705230713,2.815581083297729,9.404424667358398,19,1,0,3
1509145575424.0,0.047884032130241394,2.691082715988159,9.184157371520996,19,1,0,3
1509145575424.0,-0.047884032130241394,2.9496564865112305,9.2033109664917,19,1,0,3
1509145575424.0,-0.047884032130241394,2.930502891540528,9.490615844726562,19,1,0,3
1509145575424.0,-0.14365209639072418,3.00711727142334,9.14585018157959,19,1,0,3
1509145575424.0,0.0,2.930502891540528,9.174580574035645,19,1,0,3
1509145575424.0,-0.009576806798577309,2.9688100814819336,9.165003776550293,19,1,0,3
1509145575424.0,-0.07661445438861847,3.045424461364746,8.992621421813965,19,1,0,3
1509145575424.0,-0.20111294090747836,3.045424461364746,9.318233489990234,19,1,0,3
1509145575424.0,-0.4692635238170624,3.0358476638793945,9.35654067993164,19,1,0,3
1509145575424.0,-0.6033388376235962,3.0166940689086914,9.165003776550293,19,1,0,3
1509145575424.0,-0.26815059781074524,2.930502891540528,9.184157371520996,19,1,0,3
1509145575424.0,-0.2585737705230713,3.0358476638793945,9.002198219299316,19,1,0,3
1509145575424.0,-0.3351882398128509,3.045424461364746,9.27034854888916,19,1,0,3
1509145575424.0,-0.18195933103561399,3.026270866394043,9.41400146484375,19,1,0,3
1509145575424.0,-0.2489969730377197,3.0166940689086914,9.279925346374512,19,1,0,3
1509145575424.0,-0.12449848651885985,2.978386878967285,9.030928611755373,19,1,0,3
1509145575424.0,-0.12449848651885985,2.9975404739379883,9.136273384094238,19,1,0,3
1509145575424.0,-0.10534487664699554,2.978386878967285,9.107542991638184,19,1,0,3
1509145575424.0,-0.06703764945268631,2.978386878967285,9.299078941345217,19,1,0,3
1509145575424.0,-0.23942017555236814,3.093308687210083,9.222464561462402,19,1,0,3
1509145575424.0,-0.07661445438861847,3.0645780563354488,9.08838939666748,19,1,0,3
1509145575424.0,-0.028730420395731926,3.0166940689086914,9.337387084960938,19,1,0,3
1509145575424.0,-0.08619125932455063,3.026270866394043,9.059659004211426,19,1,0,3
1509145575424.0,-0.08619125932455063,2.9975404739379883,8.96389102935791,19,1,0,3
1509145575424.0,-0.06703764945268631,3.045424461364746,9.327810287475586,19,1,0,3
1509145575424.0,-0.15322890877723694,3.0837318897247314,9.404424667358398,19,1,0,3
1509145575424.0,-0.05746084079146385,3.07415509223938,9.15542697906494,19,1,0,3
1509145575424.0,-0.12449848651885985,3.093308687210083,8.868123054504395,19,1,0,3
1509145575424.0,-0.14365209639072418,3.0550012588500977,8.935160636901855,19,1,0,3
1509145575424.0,-0.07661445438861847,3.1699230670928955,9.222464561462402,19,1,0,3
1509145575424.0,-0.1149216815829277,3.1220390796661377,9.500192642211914,19,1,0,3
1509145575424.0,-0.08619125932455063,3.0550012588500977,9.069235801696776,19,1,0,3
1509145575424.0,-0.047884032130241394,2.9879636764526367,9.193734169006348,19,1,0,3
1509145575424.0,-0.047884032130241394,2.9688100814819336,9.097966194152832,19,1,0,3
1509145575424.0,-0.028730420395731926,3.00711727142334,9.27034854888916,19,1,0,3
1509145575424.0,-0.05746084079146385,3.0837318897247314,9.41400146484375,19,1,0,3
1509145575424.0,-0.07661445438861847,3.1411926746368413,9.251194953918457,19,1,0,3
1509145575424.0,-0.12449848651885985,3.1411926746368413,9.308655738830566,19,1,0,3
1509145575424.0,-0.019153613597154617,2.9496564865112305,9.346963882446287,19,1,0,3
1509145575424.0,0.05746084079146385,2.767697095870972,9.2033109664917,19,1,0,3
1509145575424.0,-0.07661445438861847,2.940079689025879,9.260771751403807,19,1,0,3
1509145575424.0,-0.1628057211637497,3.0645780563354488,9.433155059814453,19,1,0,3
1509145575424.0,-0.13407529890537262,3.0837318897247314,9.66299819946289,19,1,0,3
1509145575424.0,0.05746084079146385,2.853888511657715,9.165003776550293,19,1,0,3
1509145575424.0,-0.13407529890537262,2.853888511657715,9.107542991638184,19,1,0,3
1509145575424.0,-0.10534487664699554,3.026270866394043,9.117119789123537,19,1,0,3
1509145575424.0,-0.0957680642604828,3.1411926746368413,9.528923034667967,20,1,0,3
1509145575424.0,-0.1628057211637497,3.1028854846954346,9.586383819580078,20,1,0,3
1509145575424.0,-0.2106897532939911,3.0550012588500977,9.040505409240724,20,1,0,3
1509145575424.0,-0.15322890877723694,2.9879636764526367,8.877699851989746,20,1,0,3
1509145575424.0,-0.18195933103561399,3.0166940689086914,9.2033109664917,20,1,0,3
1509145575424.0,-0.1915361285209656,3.026270866394043,9.672574996948242,20,1,0,3
1509145575424.0,-0.17238251864910126,3.1220390796661377,9.346963882446287,20,1,0,3
1509145575424.0,-0.0957680642604828,3.07415509223938,9.251194953918457,20,1,0,3
1509145575424.0,-0.18195933103561399,3.07415509223938,8.992621421813965,20,1,0,3
1509145575424.0,-0.12449848651885985,2.882618904113769,8.26478385925293,20,1,0,3
1509145575424.0,0.07661445438861847,1.015141487121582,10.802638053894043,20,1,0,3
1509145575424.0,0.06703764945268631,0.7469909191131592,10.256759643554688,20,1,0,3
1509145575424.0,-0.10534487664699554,0.9385270476341248,9.682151794433594,20,1,0,3
1509145575424.0,0.07661445438861847,0.90979665517807,9.643844604492188,20,1,0,3
1509145575424.0,0.0,1.0534487962722778,9.682151794433594,20,1,0,3
1509145575424.0,-0.028730420395731926,1.235408067703247,9.710882186889648,20,1,0,3
1509145575424.0,0.028730420395731926,1.216254472732544,10.036493301391602,20,1,0,3
1509145575424.0,0.10534487664699554,1.1779472827911377,9.749189376831056,20,1,0,3
1509145575424.0,0.14365209639072418,1.0247182846069336,9.84495735168457,20,1,0,3
1509145575424.0,0.047884032130241394,1.1109095811843872,9.461885452270508,20,1,0,3
1509145575424.0,-0.047884032130241394,1.2832920551300049,9.346963882446287,20,1,0,3
1509145575424.0,-0.009576806798577309,1.1971008777618408,9.988609313964844,20,1,0,3
1509145575424.0,-0.12449848651885985,1.3311761617660522,9.921571731567383,20,1,0,3
1509145575424.0,0.0,1.235408067703247,9.739612579345703,20,1,0,3
1509145575424.0,0.009576806798577309,1.2258312702178955,9.461885452270508,20,1,0,3
1509145575424.0,-0.019153613597154617,1.3503297567367554,9.442731857299805,20,1,0,3
1509145575424.0,-0.1628057211637497,1.321599364280701,9.883264541625977,20,1,0,3
1509145575424.0,-0.2873041927814484,1.3886369466781616,9.66299819946289,20,1,0,3
1509145575424.0,-0.07661445438861847,1.273715257644653,9.490615844726562,20,1,0,3
1509145575424.0,-0.1628057211637497,1.321599364280701,9.672574996948242,20,1,0,3
1509145575424.0,-0.05746084079146385,1.168370485305786,9.854534149169922,20,1,0,3
1509145575424.0,-0.0957680642604828,1.235408067703247,9.749189376831056,20,1,0,3
1509145575424.0,-0.14365209639072418,1.2832920551300049,9.710882186889648,20,1,0,3
1509145575424.0,-0.047884032130241394,1.2832920551300049,9.375694274902344,20,1,0,3
1509145575424.0,-0.1628057211637497,1.359906554222107,9.83538055419922,20,1,0,3
1509145575424.0,-0.038307227194309235,1.2258312702178955,9.988609313964844,20,1,0,3
1509145575424.0,-0.038307227194309235,1.2449848651885986,9.66299819946289,20,1,0,3
1509145575424.0,-0.08619125932455063,1.1875240802764893,9.710882186889648,20,1,0,3
1509145575424.0,-0.17238251864910126,1.2545616626739502,9.672574996948242,20,1,0,3
1509145575424.0,0.028730420395731926,1.2258312702178955,9.452308654785156,20,1,0,3
1509145575424.0,-0.2106897532939911,1.2832920551300049,10.065223693847656,20,1,0,3
1509145575424.0,-0.1628057211637497,1.417367458343506,9.797073364257812,20,1,0,3
1509145575424.0,0.009576806798577309,1.4077905416488647,9.797073364257812,20,1,0,3
1509145575424.0,-0.0957680642604828,1.3311761617660522,9.66299819946289,20,1,0,3
1509145575424.0,-0.2489969730377197,1.3120225667953491,9.394847869873047,20,1,0,3
1509145575424.0,-0.17238251864910126,1.1492167711257937,9.739612579345703,20,1,0,3
1509145575424.0,-0.4788403511047363,1.1204863786697388,10.065223693847656,20,1,0,3
1509145575424.0,0.10534487664699554,1.015141487121582,9.634267807006836,20,1,0,3
1509145575424.0,-0.3064578175544739,1.235408067703247,9.528923034667967,20,1,0,3
1509145575424.0,-0.2873041927814484,1.3694833517074585,9.423578262329102,20,1,0,3
1509150294016.0,0.2489969730377197,-0.15322890877723694,9.768342971801758,21,1,0,3
1509150294016.0,0.2298433631658554,-0.1628057211637497,9.816226959228516,21,1,0,3
1509150294016.0,0.2585737705230713,-0.17238251864910126,9.787496566772461,21,1,0,3
1509150294016.0,0.36391866207122797,-0.20111294090747836,9.768342971801758,21,1,0,3
1509150294016.0,0.3447650372982025,-0.17238251864910126,9.720458984375,21,1,0,3
1509150294016.0,0.3351882398128509,-0.22026655077934265,9.768342971801758,21,1,0,3
1509150294016.0,0.3447650372982025,-0.2106897532939911,9.816226959228516,21,1,0,3
1509150294016.0,0.2298433631658554,-0.1915361285209656,9.84495735168457,21,1,0,3
1509150294016.0,0.3256114423274994,-0.2106897532939911,9.787496566772461,21,1,0,3
1509150294016.0,0.3256114423274994,-0.20111294090747836,9.730035781860352,21,1,0,3
1509150294016.0,0.2585737705230713,-0.17238251864910126,9.806650161743164,21,1,0,3
1509150294016.0,0.2968810200691223,-0.2106897532939911,9.825803756713867,21,1,0,3
1509150294016.0,0.2873041927814484,-0.1915361285209656,9.739612579345703,21,1,0,3
1509150294016.0,0.23942017555236814,-0.1915361285209656,9.749189376831056,21,1,0,3
1509150294016.0,0.2585737705230713,-0.18195933103561399,9.739612579345703,21,1,0,3
1509150294016.0,0.3256114423274994,-0.1915361285209656,9.806650161743164,21,1,0,3
1509150294016.0,0.3064578175544739,-0.1915361285209656,9.797073364257812,21,1,0,3
1509150294016.0,0.3064578175544739,-0.17238251864910126,9.854534149169922,21,1,0,3
1509150294016.0,0.3543418645858765,-0.2298433631658554,9.806650161743164,21,1,0,3
1509150294016.0,0.2968810200691223,-0.1915361285209656,9.797073364257812,21,1,0,3
1509150294016.0,0.2298433631658554,-0.22026655077934265,9.816226959228516,21,1,0,3
1509150294016.0,0.3543418645858765,-0.2298433631658554,9.787496566772461,21,1,0,3
1509150294016.0,0.3543418645858765,-0.22026655077934265,9.720458984375,21,1,0,3
1509150294016.0,0.3064578175544739,-0.17238251864910126,9.672574996948242,21,1,0,3
1509150294016.0,0.31603461503982544,-0.23942017555236814,9.806650161743164,21,1,0,3
1509150294016.0,0.2489969730377197,-0.2106897532939911,9.873687744140623,21,1,0,3
1509150294016.0,0.2968810200691223,-0.2106897532939911,9.892841339111328,21,1,0,3
1509150294016.0,0.3351882398128509,-0.2106897532939911,9.806650161743164,21,1,0,3
1509150294016.0,0.2873041927814484,-0.2106897532939911,9.758766174316406,21,1,0,3
1509150294016.0,0.36391866207122797,-0.23942017555236814,9.806650161743164,21,1,0,3
1509150294016.0,0.3447650372982025,-0.20111294090747836,9.787496566772461,21,1,0,3
1509150294016.0,0.2968810200691223,-0.20111294090747836,9.749189376831056,21,1,0,3
1509150294016.0,0.26815059781074524,-0.2106897532939911,9.730035781860352,21,1,0,3
1509150294016.0,0.22026655077934265,-0.20111294090747836,9.77791976928711,21,1,0,3
1509150294016.0,0.3830722570419312,-0.23942017555236814,9.84495735168457,21,1,0,3
1509150294016.0,0.2968810200691223,-0.22026655077934265,9.816226959228516,21,1,0,3
1509150294016.0,0.31603461503982544,-0.2298433631658554,9.816226959228516,21,1,0,3
1509150294016.0,0.2968810200691223,-0.2106897532939911,9.768342971801758,21,1,0,3
1509150294016.0,0.3256114423274994,-0.2489969730377197,9.758766174316406,21,1,0,3
1509150294016.0,0.3447650372982025,-0.22026655077934265,9.710882186889648,21,1,0,3
1509150294016.0,0.2777273952960968,-0.23942017555236814,9.758766174316406,21,1,0,3
1509150294016.0,0.2968810200691223,-0.18195933103561399,9.816226959228516,21,1,0,3
1509150294016.0,0.2585737705230713,-0.20111294090747836,9.883264541625977,21,1,0,3
1509150294016.0,0.2968810200691223,-0.1915361285209656,9.83538055419922,21,1,0,3
1509150294016.0,0.3256114423274994,-0.22026655077934265,9.758766174316406,21,1,0,3
1509150294016.0,0.3734954595565796,-0.1915361285209656,9.730035781860352,21,1,0,3
1509150294016.0,0.2873041927814484,-0.20111294090747836,9.806650161743164,21,1,0,3
1509150294016.0,0.23942017555236814,-0.22026655077934265,9.797073364257812,21,1,0,3
1509150294016.0,0.31603461503982544,-0.22026655077934265,9.806650161743164,21,1,0,3
1509150294016.0,0.31603461503982544,-0.22026655077934265,9.768342971801758,21,1,0,3
1509150294016.0,0.23942017555236814,-0.22026655077934265,9.768342971801758,22,1,0,3
1509150294016.0,0.3256114423274994,-0.22026655077934265,9.768342971801758,22,1,0,3
1509150294016.0,0.2968810200691223,-0.2298433631658554,9.797073364257812,22,1,0,3
1509150294016.0,0.2489969730377197,-0.22026655077934265,9.749189376831056,22,1,0,3
1509150294016.0,0.26815059781074524,-0.22026655077934265,9.77791976928711,22,1,0,3
1509150294016.0,0.3447650372982025,-0.2298433631658554,9.787496566772461,22,1,0,3
1509150294016.0,0.3734954595565796,-0.2489969730377197,9.806650161743164,22,1,0,3
1509150294016.0,0.31603461503982544,-0.26815059781074524,9.806650161743164,22,1,0,3
1509150294016.0,0.31603461503982544,-0.26815059781074524,9.797073364257812,22,1,0,3
1509150294016.0,0.3064578175544739,-0.2489969730377197,9.825803756713867,22,1,0,3
1509150294016.0,0.3256114423274994,-0.2777273952960968,9.797073364257812,22,1,0,3
1509150294016.0,0.2298433631658554,-0.23942017555236814,9.77791976928711,22,1,0,3
1509150294016.0,0.2873041927814484,-0.2585737705230713,9.797073364257812,22,1,0,3
1509150294016.0,0.2777273952960968,-0.2298433631658554,9.797073364257812,22,1,0,3
1509150294016.0,0.2585737705230713,-0.23942017555236814,9.816226959228516,22,1,0,3
1509150294016.0,0.2298433631658554,-0.2489969730377197,9.83538055419922,22,1,0,3
1509150294016.0,0.3447650372982025,-0.2489969730377197,9.758766174316406,22,1,0,3
1509150294016.0,0.2298433631658554,-0.2489969730377197,9.701305389404297,22,1,0,3
1509150294016.0,0.2489969730377197,-0.2489969730377197,9.720458984375,22,1,0,3
1509150294016.0,0.18195933103561399,-0.26815059781074524,9.66299819946289,22,1,0,3
1509150294016.0,0.22026655077934265,-0.2489969730377197,9.682151794433594,22,1,0,3
1509150294016.0,0.2873041927814484,-0.26815059781074524,9.77791976928711,22,1,0,3
1509150294016.0,0.3064578175544739,-0.26815059781074524,9.864110946655273,22,1,0,3
1509150294016.0,0.3543418645858765,-0.2489969730377197,9.749189376831056,22,1,0,3
1509150294016.0,0.31603461503982544,-0.2298433631658554,9.739612579345703,22,1,0,3
1509150294016.0,0.20111294090747836,-0.20111294090747836,9.806650161743164,22,1,0,3
1509150294016.0,0.2489969730377197,-0.2585737705230713,9.825803756713867,22,1,0,3
1509150294016.0,0.4022258818149567,-0.26815059781074524,9.77791976928711,22,1,0,3
1509150294016.0,0.36391866207122797,-0.2298433631658554,9.768342971801758,22,1,0,3
1509150294016.0,0.2873041927814484,-0.2777273952960968,9.797073364257812,22,1,0,3
1509150294016.0,0.2873041927814484,-0.2489969730377197,9.77791976928711,22,1,0,3
1509150294016.0,0.2585737705230713,-0.26815059781074524,9.825803756713867,22,1,0,3
1509150294016.0,0.2777273952960968,-0.2489969730377197,9.758766174316406,22,1,0,3
1509150294016.0,0.2585737705230713,-0.22026655077934265,9.758766174316406,22,1,0,3
1509150294016.0,0.2777273952960968,-0.2777273952960968,9.787496566772461,22,1,0,3
1509150294016.0,0.3064578175544739,-0.2585737705230713,9.787496566772461,22,1,0,3
1509150294016.0,0.3351882398128509,-0.2298433631658554,9.758766174316406,22,1,0,3
1509150294016.0,0.2777273952960968,-0.2585737705230713,9.701305389404297,22,1,0,3
1509150294016.0,0.2489969730377197,-0.2777273952960968,9.77791976928711,22,1,0,3
1509150294016.0,0.3064578175544739,-0.2585737705230713,9.749189376831056,22,1,0,3
1509150294016.0,0.31603461503982544,-0.26815059781074524,9.797073364257812,22,1,0,3
1509150294016.0,0.3064578175544739,-0.2489969730377197,9.77791976928711,22,1,0,3
1509150294016.0,0.2873041927814484,-0.2489969730377197,9.701305389404297,22,1,0,3
1509150294016.0,0.26815059781074524,-0.2585737705230713,9.758766174316406,22,1,0,3
1509150294016.0,0.2106897532939911,-0.2585737705230713,9.806650161743164,22,1,0,3
1509150294016.0,0.2873041927814484,-0.23942017555236814,9.720458984375,22,1,0,3
1509150294016.0,0.2585737705230713,-0.2585737705230713,9.768342971801758,22,1,0,3
1509150294016.0,0.22026655077934265,-0.2489969730377197,9.758766174316406,22,1,0,3
1509150294016.0,0.2489969730377197,-0.2298433631658554,9.77791976928711,22,1,0,3
1509150294016.0,0.2777273952960968,-0.20111294090747836,9.816226959228516,22,1,0,3
1509418860544.0,-0.31011962890625,4.11004638671875,9.072219848632812,23,1,0,3
1509418860544.0,-0.6724395751953125,3.463623046875,10.930130004882812,23,1,0,3
1509418860544.0,0.3394927978515625,2.73419189453125,11.967605590820312,23,1,0,3
1509418860544.0,1.0098876953125,1.19390869140625,13.357040405273438,23,1,0,3
1509418860544.0,0.85345458984375,1.647216796875,10.620468139648438,23,1,0,3
1509418860544.0,1.8909454345703125,1.746185302734375,7.859954833984375,23,1,0,3
1509418860544.0,0.9771575927734376,0.964874267578125,7.0419464111328125,23,1,0,3
1509418860544.0,0.8566436767578125,4.00390625,6.562301635742188,23,1,0,3
1509418860544.0,0.605255126953125,3.9384613037109375,8.61334228515625,23,1,0,3
1509418860544.0,0.539825439453125,3.935272216796875,7.47369384765625,23,1,0,3
1509418860544.0,0.2916259765625,4.4085235595703125,7.843994140625,23,1,0,3
1509418860544.0,0.31317138671875,4.238540649414063,8.385086059570312,23,1,0,3
1509418860544.0,0.51348876953125,5.0733184814453125,8.764175415039062,23,1,0,3
1509418860544.0,0.9093170166015624,4.4715728759765625,9.706680297851562,23,1,0,3
1509418860544.0,0.8766021728515625,3.612060546875,8.991622924804688,23,1,0,3
1509418860544.0,0.2365570068359375,2.81878662109375,8.294113159179688,23,1,0,3
1509418860544.0,0.8111572265625,3.236968994140625,9.18634033203125,23,1,0,3
1509418860544.0,1.342681884765625,3.1244354248046875,10.2525634765625,23,1,0,3
1509418860544.0,1.9053192138671875,3.746124267578125,9.843948364257812,23,1,0,3
1509418860544.0,0.7185821533203125,3.71661376953125,8.009994506835938,23,1,0,3
1509418860544.0,1.6690826416015625,4.502700805664063,9.140853881835938,23,1,0,3
1509418860544.0,1.282012939453125,4.5170745849609375,9.919769287109377,23,1,0,3
1509418860544.0,0.48394775390625,3.4356842041015625,8.322845458984375,23,1,0,3
1509418860544.0,0.6284027099609375,2.3670654296875,7.486465454101562,23,1,0,3
1509418860544.0,-0.0643157958984375,5.0086822509765625,8.269363403320312,23,1,0,3
1509418860544.0,-0.30853271484375,3.81317138671875,9.779312133789062,23,1,0,3
1509418860544.0,1.535797119140625,3.8155670166015625,11.174331665039062,23,1,0,3
1509418860544.0,-0.33087158203125,0.7884979248046875,9.019546508789062,23,1,0,3
1509418860544.0,2.858993530273437,4.2161865234375,9.140060424804688,23,1,0,3
1509418860544.0,0.605255126953125,2.745361328125,9.479232788085938,23,1,0,3
1509418860544.0,2.7321014404296875,3.1930694580078125,10.218246459960938,23,1,0,3
1509418860544.0,2.3019561767578125,2.43890380859375,9.215072631835938,23,1,0,3
1509418860544.0,2.50225830078125,0.1229095458984375,10.318801879882812,23,1,0,3
1509418860544.0,2.27880859375,1.4923858642578125,9.159210205078123,23,1,0,3
1509418860544.0,1.6052398681640625,1.4485015869140625,10.33795166015625,23,1,0,3
1509418860544.0,2.6562957763671875,2.750946044921875,8.810455322265625,23,1,0,3
1509418860544.0,1.5501708984375,2.203475952148437,9.171173095703123,23,1,0,3
1509418860544.0,2.441619873046875,0.42059326171875,9.421768188476562,23,1,0,3
1509418860544.0,2.41766357421875,-0.154022216796875,10.542266845703123,23,1,0,3
1509418860544.0,2.31072998046875,0.1588134765625,11.285263061523438,23,1,0,3
1509418860544.0,0.53582763671875,1.2593536376953125,8.96368408203125,23,1,0,3
1509418860544.0,-0.77301025390625,3.8211517333984375,9.462478637695312,23,1,0,3
1509418860544.0,-3.073837280273437,3.8379058837890634,10.025909423828123,23,1,0,3
1509418860544.0,-1.000457763671875,2.16595458984375,9.958877563476562,23,1,0,3
1509418860544.0,-0.3859405517578125,3.7174072265625,7.982070922851562,23,1,0,3
1509418860544.0,-0.6700592041015625,4.909713745117188,8.08740234375,23,1,0,3
1509418860544.0,0.85186767578125,4.20263671875,9.461685180664062,23,1,0,3
1509418860544.0,2.53179931640625,2.93609619140625,9.638046264648438,23,1,0,3
1509418860544.0,1.74969482421875,1.3814544677734375,8.330825805664062,23,1,0,3
1509418860544.0,2.992279052734375,3.3925933837890625,7.819259643554687,23,1,0,3
1509422137344.0,1.4416351318359375,3.6224365234375,8.966079711914062,24,1,0,3
1509422137344.0,1.24212646484375,3.703033447265625,9.103347778320312,24,1,0,3
1509422137344.0,1.168701171875,3.998321533203125,9.119308471679688,24,1,0,3
1509422137344.0,1.6523284912109375,3.637603759765625,8.404251098632812,24,1,0,3
1509422137344.0,0.5023040771484375,4.5122833251953125,10.59173583984375,24,1,0,3
1509422137344.0,5.774337768554688,2.62005615234375,6.0675048828125,24,1,0,3
1509422137344.0,3.23089599609375,4.3167572021484375,10.2525634765625,24,1,0,3
1509422137344.0,3.11279296875,3.3095855712890625,6.62933349609375,24,1,0,3
1509422137344.0,-3.65802001953125,6.990280151367188,5.85601806640625,24,1,0,3
1509422137344.0,-4.7920684814453125,4.189865112304688,9.612518310546877,24,1,0,3
1509422137344.0,3.56927490234375,0.9361419677734376,6.431427001953125,24,1,0,3
1509422137344.0,11.357620239257812,-1.917755126953125,8.564651489257812,24,1,0,3
1509422137344.0,9.372833251953123,-1.38623046875,9.315628051757812,24,1,0,3
1509422137344.0,0.2636871337890625,-0.1484375,8.40423583984375,24,1,0,3
1509422137344.0,-7.044219970703125,6.268829345703125,4.7794189453125,24,1,0,3
1509422137344.0,-9.495071411132812,5.509857177734375,13.894149780273438,24,1,0,3
1509422137344.0,-0.895904541015625,1.51873779296875,7.055511474609375,24,1,0,3
1509422137344.0,5.94512939453125,0.6288909912109375,7.03955078125,24,1,0,3
1509422137344.0,10.747894287109377,-2.52667236328125,7.340408325195312,24,1,0,3
1509422137344.0,10.99609375,-2.087738037109375,6.718719482421875,24,1,0,3
1509422137344.0,2.0058746337890625,0.4189910888671875,6.1864166259765625,24,1,0,3
1509422137344.0,-11.649063110351562,13.296600341796875,12.990737915039062,24,1,0,3
1509422137344.0,-6.2126312255859375,2.46124267578125,13.408920288085938,24,1,0,3
1509422137344.0,8.7567138671875,-3.01348876953125,7.298919677734375,24,1,0,3
1509422137344.0,13.38470458984375,-3.0470123291015625,6.935791015625,24,1,0,3
1509422137344.0,10.40313720703125,-3.605667114257813,5.85601806640625,24,1,0,3
1509422137344.0,-1.813690185546875,-1.9217376708984373,10.503158569335938,24,1,0,3
1509422137344.0,-11.451141357421875,8.827423095703125,16.022598266601562,24,1,0,3
1509422137344.0,-2.642074584960937,0.5594482421875,16.854171752929688,24,1,0,3
1509422137344.0,3.259628295898437,-1.539459228515625,6.24786376953125,24,1,0,3
1509422137344.0,9.319351196289062,-2.986358642578125,7.741836547851562,24,1,0,3
1509422137344.0,11.677642822265625,-2.90496826171875,8.500015258789062,24,1,0,3
1509422137344.0,4.4591217041015625,-2.427719116210937,8.480056762695312,24,1,0,3
1509422137344.0,-3.41619873046875,4.709396362304688,8.740219116210938,24,1,0,3
1509422137344.0,-8.878173828125,6.3199005126953125,22.014480590820312,24,1,0,3
1509422137344.0,1.069732666015625,-0.2888946533203125,8.591781616210938,24,1,0,3
1509422137344.0,5.7352294921875,1.5538482666015625,4.8608245849609375,24,1,0,3
1509422137344.0,12.079864501953125,-0.4764404296875,7.0331573486328125,24,1,0,3
1509422137344.0,7.814208984375,0.36871337890625,7.237457275390625,24,1,0,3
1509422137344.0,1.5358123779296875,2.0087432861328125,6.907867431640625,24,1,0,3
1509422137344.0,-5.5374603271484375,6.7891693115234375,12.823135375976562,24,1,0,3
1509422137344.0,-7.764862060546875,8.977462768554688,7.958114624023437,24,1,0,3
1509422137344.0,-2.326034545898437,7.317489624023437,2.635009765625,24,1,0,3
1509422137344.0,2.900497436523437,1.6128997802734375,5.979705810546875,24,1,0,3
1509422137344.0,16.347137451171875,-2.398193359375,7.29412841796875,24,1,0,3
1509422137344.0,8.593109130859375,-0.849945068359375,5.251876831054688,24,1,0,3
1509422137344.0,4.728073120117188,-1.26971435546875,5.682037353515625,24,1,0,3
1509422137344.0,-11.173416137695312,6.988677978515625,15.474319458007812,24,1,0,3
1509422137344.0,-13.730422973632812,7.93280029296875,11.208648681640623,24,1,0,3
1509422137344.0,-0.239898681640625,0.257781982421875,5.5423736572265625,24,1,0,3
1509422137344.0,7.54046630859375,-1.4716339111328125,9.626083374023438,25,1,0,3
1509422137344.0,13.644088745117188,-2.7078399658203125,7.7458343505859375,25,1,0,3
1509422137344.0,9.194061279296877,-1.0071563720703125,5.345245361328125,25,1,0,3
1509422137344.0,-5.43450927734375,1.3016510009765625,5.556732177734375,25,1,0,3
1509422137344.0,-7.3363037109375,5.1834564208984375,12.464813232421875,25,1,0,3
1509422137344.0,-13.902801513671875,6.428436279296875,9.405014038085938,25,1,0,3
1509422137344.0,-1.825653076171875,1.1803436279296875,9.393051147460938,25,1,0,3
1509422137344.0,6.521331787109375,-0.968841552734375,6.960540771484375,25,1,0,3
1509422137344.0,10.928268432617188,-0.7334136962890625,7.1808013916015625,25,1,0,3
1509422137344.0,11.49090576171875,0.1540374755859375,4.674072265625,25,1,0,3
1509422137344.0,1.1255950927734375,-1.9688262939453125,6.5112152099609375,25,1,0,3
1509422137344.0,-5.6858978271484375,4.057388305664063,8.674789428710938,25,1,0,3
1509422137344.0,-15.698455810546875,6.8043365478515625,13.3466796875,25,1,0,3
1509422137344.0,-7.002716064453125,1.905792236328125,9.540695190429688,25,1,0,3
1509422137344.0,2.967529296875,-0.756561279296875,7.32684326171875,25,1,0,3
1509422137344.0,10.8492431640625,-1.6815185546875,7.6867828369140625,25,1,0,3
1509422137344.0,10.024856567382812,-0.619293212890625,7.170425415039063,25,1,0,3
1509422137344.0,3.15667724609375,0.1875457763671875,7.296524047851562,25,1,0,3
1509422137344.0,-6.4408721923828125,2.82037353515625,11.424118041992188,25,1,0,3
1509422137344.0,-11.34100341796875,5.246505737304688,13.664306640625,25,1,0,3
1509422137344.0,-5.4257354736328125,3.1268310546875,8.622909545898438,25,1,0,3
1509422137344.0,3.277191162109375,-0.730224609375,7.501617431640625,25,1,0,3
1509422137344.0,12.783767700195312,-1.8802337646484373,8.780929565429688,25,1,0,3
1509422137344.0,9.715194702148438,-1.2497711181640625,6.74346923828125,25,1,0,3
1509422137344.0,4.6043853759765625,-2.267303466796875,6.043548583984375,25,1,0,3
1509422137344.0,-7.5390167236328125,-0.3854522705078125,15.681015014648438,25,1,0,3
1509422137344.0,-11.359359741210938,2.297637939453125,17.074447631835938,25,1,0,3
1509422137344.0,-3.601348876953125,0.2075042724609375,7.878311157226562,25,1,0,3
1509422137344.0,4.9020538330078125,-3.0789337158203125,7.078659057617188,25,1,0,3
1509422137344.0,13.08782958984375,-4.4093170166015625,7.616546630859375,25,1,0,3
1509422137344.0,9.584320068359377,-3.264877319335937,6.602203369140625,25,1,0,3
1509422137344.0,3.3713531494140625,-3.345489501953125,7.038742065429688,25,1,0,3
1509422137344.0,-6.717803955078125,5.20660400390625,14.093658447265625,25,1,0,3
1509422137344.0,-6.524673461914063,4.271255493164063,15.167861938476562,25,1,0,3
1509422137344.0,2.485504150390625,-0.8698883056640625,6.467330932617188,25,1,0,3
1509422137344.0,9.297805786132812,-1.421356201171875,7.370742797851562,25,1,0,3
1509422137344.0,12.676834106445312,-2.098114013671875,5.971725463867188,25,1,0,3
1509422137344.0,8.056015014648438,-2.2529449462890625,6.3556060791015625,25,1,0,3
1509422137344.0,-3.444931030273437,1.0845794677734375,11.321182250976562,25,1,0,3
1509422137344.0,-7.561355590820312,5.1108245849609375,13.51824951171875,25,1,0,3
1509422137344.0,-5.1607818603515625,3.6966552734375,10.477615356445312,25,1,0,3
1509422137344.0,2.89093017578125,0.193939208984375,7.241455078125,25,1,0,3
1509422137344.0,8.995346069335938,-1.00555419921875,8.863128662109375,25,1,0,3
1509422137344.0,11.01763916015625,-0.2458038330078125,6.5128173828125,25,1,0,3
1509422137344.0,7.664169311523437,-0.598541259765625,6.1297454833984375,25,1,0,3
1509422137344.0,-9.402496337890623,-1.00555419921875,7.64447021484375,25,1,0,3
1509422137344.0,-12.625106811523438,4.1443634033203125,12.697845458984375,25,1,0,3
1509422137344.0,-6.4767913818359375,2.67193603515625,9.092971801757812,25,1,0,3
1509422137344.0,1.322723388671875,0.7150726318359375,9.049880981445312,25,1,0,3
1509422137344.0,5.7512054443359375,2.022308349609375,8.705108642578125,25,1,0,3
1509422137344.0,9.872421264648438,1.980010986328125,7.8886871337890625,26,1,0,3
1509422137344.0,5.8892669677734375,1.8092193603515625,6.2039794921875,26,1,0,3
1509422137344.0,-4.698699951171875,1.820404052734375,3.5879058837890625,26,1,0,3
1509422137344.0,-10.722503662109377,3.130828857421875,12.69305419921875,26,1,0,3
1509422137344.0,-13.794265747070312,5.1036529541015625,7.98046875,26,1,0,3
1509422137344.0,-5.612472534179688,1.5658111572265625,7.919021606445312,26,1,0,3
1509422137344.0,3.851806640625,-1.432525634765625,6.60699462890625,26,1,0,3
1509422137344.0,13.90106201171875,-2.196273803710937,8.299697875976562,26,1,0,3
1509422137344.0,8.324966430664062,-1.63922119140625,6.6684417724609375,26,1,0,3
1509422137344.0,-2.517578125,-1.813995361328125,10.423355102539062,26,1,0,3
1509422137344.0,-11.041732788085938,5.86419677734375,14.291580200195312,26,1,0,3
1509422137344.0,-6.515899658203125,3.642379760742188,9.107330322265623,26,1,0,3
1509422137344.0,2.054550170898437,-0.3351898193359375,8.28692626953125,26,1,0,3
1509422137344.0,11.454193115234375,-1.0374908447265625,8.067459106445312,26,1,0,3
1509422137344.0,10.663299560546877,0.1165313720703125,6.6740264892578125,26,1,0,3
1509422137344.0,-0.9262237548828124,1.7621307373046875,6.8631744384765625,26,1,0,3
1509422137344.0,-5.2613372802734375,6.39093017578125,9.482437133789062,26,1,0,3
1509422137344.0,-9.788772583007812,6.779586791992188,11.158370971679688,26,1,0,3
1509422137344.0,-0.7738037109375,1.18353271484375,7.6524658203125,26,1,0,3
1509422137344.0,11.466964721679688,-2.0175018310546875,7.330047607421875,26,1,0,3
1509422137344.0,12.382339477539062,-2.089340209960937,6.558319091796875,26,1,0,3
1509422137344.0,6.0616455078125,-1.940093994140625,6.728302001953125,26,1,0,3
1509422137344.0,-7.578125,2.0933380126953125,11.895782470703125,26,1,0,3
1509422137344.0,-8.707382202148438,5.3055572509765625,13.870208740234375,26,1,0,3
1509422137344.0,-2.73065185546875,3.13800048828125,7.615753173828125,26,1,0,3
1509422137344.0,5.0177764892578125,0.6991119384765625,7.881500244140625,26,1,0,3
1509422137344.0,11.736709594726562,0.0438995361328125,8.00201416015625,26,1,0,3
1509422137344.0,9.814163208007812,-0.2737274169921875,5.626968383789063,26,1,0,3
1509422137344.0,-0.1712646484375,-0.8539276123046875,7.679595947265625,26,1,0,3
1509422137344.0,-12.564437866210938,4.820327758789063,13.5294189453125,26,1,0,3
1509422137344.0,-8.650726318359375,4.5569610595703125,9.231048583984377,26,1,0,3
1509422137344.0,-2.006011962890625,1.547454833984375,7.8408050537109375,26,1,0,3
1509422137344.0,6.62030029296875,-1.7565460205078125,8.636474609375,26,1,0,3
1509422137344.0,13.349594116210938,-0.059844970703125,5.6014251708984375,26,1,0,3
1509422137344.0,9.334518432617188,0.5682220458984375,3.782638549804688,26,1,0,3
1509422137344.0,1.08331298828125,-2.1875,8.302886962890625,26,1,0,3
1509422137344.0,-12.638656616210938,3.59051513671875,15.580459594726562,26,1,0,3
1509422137344.0,-10.428024291992188,4.443649291992188,8.938140869140625,26,1,0,3
1509422137344.0,-1.266998291015625,1.071014404296875,7.73626708984375,26,1,0,3
1509422137344.0,5.06964111328125,-0.020751953125,8.215103149414062,26,1,0,3
1509422137344.0,11.453384399414062,-0.7118682861328125,7.33642578125,26,1,0,3
1509422137344.0,9.656143188476562,-0.6631927490234375,6.432220458984375,26,1,0,3
1509422137344.0,1.9835205078125,-2.2329864501953125,8.411422729492188,26,1,0,3
1509422137344.0,-9.54534912109375,4.280044555664063,12.110458374023438,26,1,0,3
1509422137344.0,-11.201339721679688,4.908126831054688,13.361831665039062,26,1,0,3
1509422137344.0,-2.4465484619140625,-0.2657470703125,8.674789428710938,26,1,0,3
1509422137344.0,8.753524780273438,-0.5522613525390625,7.885498046875,26,1,0,3
1509422137344.0,9.119842529296877,-0.75018310546875,7.394683837890625,26,1,0,3
1509422137344.0,8.870849609375,-0.4094085693359375,5.6876220703125,26,1,0,3
1509422137344.0,-0.758636474609375,0.829193115234375,8.639663696289062,26,1,0,3
1509422137344.0,-5.77130126953125,3.774871826171875,11.750534057617188,27,1,0,3
1509422137344.0,-10.657058715820312,5.96875,11.705047607421875,27,1,0,3
1509422137344.0,-1.7450408935546875,1.3766632080078125,8.082626342773438,27,1,0,3
1509422137344.0,6.572418212890625,0.766143798828125,8.373916625976562,27,1,0,3
1509422137344.0,10.142166137695312,-0.608123779296875,7.33642578125,27,1,0,3
1509422137344.0,9.8548583984375,-0.00079345703125,6.597412109375,27,1,0,3
1509422137344.0,-0.135345458984375,0.3160400390625,7.282150268554687,27,1,0,3
1509422137344.0,-9.18621826171875,3.636795043945313,10.197494506835938,27,1,0,3
1509422137344.0,-11.619537353515625,4.8865814208984375,9.623687744140623,27,1,0,3
1509422137344.0,-5.352310180664063,2.370269775390625,7.74981689453125,27,1,0,3
1509422137344.0,1.597259521484375,0.426177978515625,8.524749755859375,27,1,0,3
1509422137344.0,11.854812622070312,-2.015106201171875,8.671600341796875,27,1,0,3
1509422137344.0,13.454940795898438,-0.87628173828125,3.252716064453125,27,1,0,3
1509422137344.0,3.786346435546875,-5.1004486083984375,4.6549224853515625,27,1,0,3
1509422137344.0,-12.42718505859375,3.405364990234375,14.475936889648438,27,1,0,3
1509422137344.0,-12.673782348632812,4.4173126220703125,12.475982666015625,27,1,0,3
1509422137344.0,-3.46728515625,0.26177978515625,8.290908813476562,27,1,0,3
1509422137344.0,5.621109008789063,-1.9169464111328125,8.55029296875,27,1,0,3
1509422137344.0,12.329666137695312,-1.76611328125,7.439376831054687,27,1,0,3
1509422137344.0,11.75665283203125,-0.65679931640625,4.804168701171875,27,1,0,3
1509422137344.0,5.22607421875,-2.3806304931640625,5.915069580078125,27,1,0,3
1509422137344.0,-11.778350830078125,3.99273681640625,14.285995483398438,27,1,0,3
1509422137344.0,-13.1358642578125,5.8657989501953125,10.5478515625,27,1,0,3
1509422137344.0,-4.9093780517578125,1.5450592041015625,7.8958740234375,27,1,0,3
1509422137344.0,4.8382110595703125,-2.711029052734375,8.854354858398438,27,1,0,3
1509422137344.0,12.303329467773438,-3.2584991455078125,9.94610595703125,27,1,0,3
1509422137344.0,10.284210205078123,-0.5115509033203125,5.093063354492188,27,1,0,3
1509422137344.0,3.655471801757813,-0.6073150634765625,6.36517333984375,27,1,0,3
1509422137344.0,-7.894149780273437,3.3207550048828125,9.885452270507812,27,1,0,3
1509422137344.0,-6.76409912109375,4.4548187255859375,8.808868408203125,27,1,0,3
1509422137344.0,-3.19512939453125,4.066162109375,9.4066162109375,27,1,0,3
1509422137344.0,-2.934173583984375,3.8035888671875,8.495223999023438,27,1,0,3
1509422137344.0,-8.798370361328125,5.1124267578125,9.60693359375,27,1,0,3
1509422137344.0,-3.462493896484375,1.30804443359375,8.031539916992188,27,1,0,3
1509422137344.0,6.846939086914063,0.2873077392578125,7.025177001953125,27,1,0,3
1509422137344.0,12.02239990234375,-0.0430908203125,6.09942626953125,27,1,0,3
1509422137344.0,8.590713500976562,1.044677734375,5.9765167236328125,27,1,0,3
1509422137344.0,-3.5311279296875,2.1883087158203125,9.084991455078123,27,1,0,3
1509422137344.0,-1.7666015625,4.5633544921875,8.50799560546875,27,1,0,3
1509422137344.0,-5.8159942626953125,3.6830902099609375,12.037841796875,27,1,0,3
1509422137344.0,-8.2325439453125,3.756515502929688,8.523147583007812,27,1,0,3
1509422137344.0,1.7903900146484375,-0.9983673095703124,7.5024261474609375,27,1,0,3
1509422137344.0,13.687973022460938,-1.663970947265625,7.678009033203125,27,1,0,3
1509422137344.0,10.838882446289062,-0.81561279296875,5.77142333984375,27,1,0,3
1509422137344.0,5.089599609375,-1.23699951171875,6.1241607666015625,27,1,0,3
1509422137344.0,-10.11279296875,1.9449005126953125,12.825531005859375,27,1,0,3
1509422137344.0,-13.081588745117188,4.8841705322265625,13.059371948242188,27,1,0,3
1509422137344.0,-4.0889739990234375,0.8212127685546875,7.954925537109375,27,1,0,3
1509422137344.0,6.589157104492188,-0.322418212890625,8.290908813476562,27,1,0,3
1509422137344.0,10.49810791015625,0.0638580322265625,9.006790161132812,27,1,0,3
1509423972352.0,1.42169189453125,4.179489135742188,6.221527099609375,28,1,0,3
1509423972352.0,-1.9070587158203125,6.6255645751953125,6.105804443359375,28,1,0,3
1509423972352.0,-3.3874664306640625,6.3781585693359375,10.832763671875,28,1,0,3
1509423972352.0,-1.1369171142578125,3.515487670898437,6.506439208984375,28,1,0,3
1509423972352.0,0.805572509765625,6.166671752929688,7.8543701171875,28,1,0,3
1509423972352.0,-0.0794830322265625,5.817916870117188,8.816848754882812,28,1,0,3
1509423972352.0,0.5230560302734375,4.40374755859375,7.256622314453125,28,1,0,3
1509423972352.0,3.3601837158203125,5.3063507080078125,6.7442626953125,28,1,0,3
1509423972352.0,-6.723388671875,-1.7796783447265625,13.44244384765625,28,1,0,3
1509423972352.0,-2.3404083251953125,0.2498016357421875,8.484848022460938,28,1,0,3
1509423972352.0,14.98883056640625,10.224838256835938,10.955657958984377,28,1,0,3
1509423972352.0,-15.526077270507812,-3.1930694580078125,13.759262084960938,28,1,0,3
1509423972352.0,-1.16644287109375,5.4428253173828125,4.5272369384765625,28,1,0,3
1509423972352.0,0.4328765869140625,4.378997802734375,7.8543701171875,28,1,0,3
1509423972352.0,10.71038818359375,6.2049713134765625,14.76483154296875,28,1,0,3
1509423972352.0,1.7105865478515625,-1.18511962890625,11.319580078125,28,1,0,3
1509423972352.0,-6.422515869140625,-13.498504638671875,10.221435546875,28,1,0,3
1509423972352.0,35.28846740722656,17.839202880859375,5.7642364501953125,28,1,0,3
1509423972352.0,-32.74676513671875,-19.63325500488281,18.351348876953125,28,1,0,3
1509423972352.0,24.87129211425781,6.132354736328125,3.89276123046875,28,1,0,3
1509423972352.0,14.442153930664062,1.8363494873046875,6.232696533203125,28,1,0,3
1509423972352.0,-22.38545227050781,-14.53839111328125,18.221267700195312,28,1,0,3
1509423972352.0,27.935073852539066,13.181686401367188,6.636520385742188,28,1,0,3
1509423972352.0,10.316940307617188,-0.4413299560546875,5.915069580078125,28,1,0,3
1509423972352.0,-18.25546264648437,-11.09393310546875,16.007431030273438,28,1,0,3
1509423972352.0,29.94221496582031,14.142562866210938,3.727569580078125,28,1,0,3
1509423972352.0,6.0616455078125,-1.32080078125,9.74420166015625,28,1,0,3
1509423972352.0,-12.498199462890625,-8.184967041015625,10.423355102539062,28,1,0,3
1509423972352.0,28.33489990234375,19.39144897460937,-3.233978271484375,28,1,0,3
1509423972352.0,-25.22737121582031,-18.21429443359375,24.522003173828125,28,1,0,3
1509423972352.0,26.424331665039066,18.377899169921875,-0.83258056640625,28,1,0,3
1509423972352.0,-20.005615234375,-14.524826049804688,17.539718627929688,28,1,0,3
1509423972352.0,14.240234375,11.448272705078125,0.769134521484375,28,1,0,3
1509423972352.0,3.764007568359375,2.8642730712890625,4.721954345703125,28,1,0,3
1509423972352.0,-14.630645751953125,-6.0477447509765625,7.276580810546875,28,1,0,3
1509423972352.0,17.380630493164062,16.143310546875,5.6373443603515625,28,1,0,3
1509423972352.0,-15.146194458007812,-4.20660400390625,12.499923706054688,28,1,0,3
1509423972352.0,-3.1656036376953125,3.1707305908203125,5.7969512939453125,28,1,0,3
1509423972352.0,4.863739013671875,7.555313110351562,8.1600341796875,28,1,0,3
1509423972352.0,3.902069091796875,7.501846313476562,5.78497314453125,28,1,0,3
1509423972352.0,2.593246459960937,8.60955810546875,5.5391845703125,28,1,0,3
1509423972352.0,-0.499267578125,5.83148193359375,6.22552490234375,28,1,0,3
1509423972352.0,0.668304443359375,6.26483154296875,6.86956787109375,28,1,0,3
1509423972352.0,1.4224853515625,7.216140747070312,6.836837768554688,28,1,0,3
1509423972352.0,1.36981201171875,7.615158081054687,7.776962280273437,28,1,0,3
1509423972352.0,1.11761474609375,7.168243408203125,6.00445556640625,28,1,0,3
1509423972352.0,-1.637298583984375,6.2560577392578125,7.331634521484375,28,1,0,3
1509423972352.0,-1.350006103515625,7.064498901367188,7.2534332275390625,28,1,0,3
1509423972352.0,-1.71551513671875,7.14111328125,6.39630126953125,28,1,0,3
1509423972352.0,-1.890289306640625,6.0246124267578125,8.063461303710938,28,1,0,3
1509423972352.0,-2.5359344482421875,6.143524169921875,6.04754638671875,29,1,0,3
1509423972352.0,1.0777130126953125,5.0940704345703125,6.725112915039063,29,1,0,3
1509423972352.0,-0.780181884765625,3.7309722900390634,9.60772705078125,29,1,0,3
1509423972352.0,-3.2789306640625,4.31915283203125,10.783279418945312,29,1,0,3
1509423972352.0,-0.8144989013671875,3.028671264648437,9.393051147460938,29,1,0,3
1509423972352.0,0.5661468505859375,3.77008056640625,8.45770263671875,29,1,0,3
1509423972352.0,0.119232177734375,5.001495361328125,7.520782470703125,29,1,0,3
1509423972352.0,0.5853118896484375,4.335113525390625,8.961288452148438,29,1,0,3
1509423972352.0,0.1982421875,4.377410888671875,8.5103759765625,29,1,0,3
1509423972352.0,-0.124969482421875,4.102066040039063,8.962081909179688,29,1,0,3
1509423972352.0,-0.559112548828125,4.1371917724609375,9.432952880859377,29,1,0,3
1509423972352.0,0.1296234130859375,4.0629730224609375,8.378707885742188,29,1,0,3
1509423972352.0,0.4025421142578125,3.948043823242188,8.397048950195312,29,1,0,3
1509423972352.0,0.9779510498046876,4.614425659179688,9.178375244140623,29,1,0,3
1509423972352.0,-0.5240020751953125,4.286422729492188,8.632492065429688,29,1,0,3
1509423972352.0,2.6722564697265625,6.311126708984375,13.118423461914062,29,1,0,3
1509423972352.0,5.3641357421875,4.469985961914063,9.751373291015623,29,1,0,3
1509423972352.0,-2.1712188720703125,3.8522796630859375,1.8337554931640625,29,1,0,3
1509423972352.0,-4.069015502929688,5.4803314208984375,6.38433837890625,29,1,0,3
1509423972352.0,-2.925384521484375,6.859390258789063,6.3316650390625,29,1,0,3
1509423972352.0,-2.704330444335937,7.083648681640625,4.4538116455078125,29,1,0,3
1509423972352.0,-4.405807495117188,6.5840606689453125,5.986099243164063,29,1,0,3
1509423972352.0,-2.891876220703125,6.7045745849609375,7.0634765625,29,1,0,3
1509423972352.0,-4.3251953125,7.10919189453125,3.704421997070313,29,1,0,3
1509423972352.0,-1.95733642578125,5.592864990234375,5.747467041015625,29,1,0,3
1509423972352.0,-3.883865356445313,3.1180572509765625,6.531173706054688,29,1,0,3
1509423972352.0,-2.585418701171875,6.663864135742188,5.654098510742188,29,1,0,3
1509423972352.0,6.5301055908203125,7.4052734375,10.867080688476562,29,1,0,3
1509423972352.0,0.6531524658203125,4.63836669921875,11.037857055664062,29,1,0,3
1509423972352.0,-2.702728271484375,0.5977630615234375,10.27410888671875,29,1,0,3
1509423972352.0,-2.5375213623046875,2.298446655273437,8.206314086914062,29,1,0,3
1509423972352.0,-0.8807373046875,3.46600341796875,9.409805297851562,29,1,0,3
1509423972352.0,-0.590240478515625,4.410919189453125,8.437759399414062,29,1,0,3
1509423972352.0,-0.7243194580078125,4.5322265625,8.24383544921875,29,1,0,3
1509423972352.0,-0.82806396484375,4.695831298828125,8.310073852539062,29,1,0,3
1509423972352.0,-0.81610107421875,4.738128662109375,8.179977416992188,29,1,0,3
1509423972352.0,0.1894683837890625,5.605636596679688,8.141677856445312,29,1,0,3
1509423972352.0,-0.6397247314453125,4.8506622314453125,8.1273193359375,29,1,0,3
1509423972352.0,-0.8472137451171875,4.7516937255859375,8.06427001953125,29,1,0,3
1509423972352.0,0.01708984375,5.12359619140625,8.959701538085938,29,1,0,3
1509423972352.0,-0.6093902587890625,5.331100463867188,8.045913696289062,29,1,0,3
1509423972352.0,-0.6133880615234375,5.012664794921875,8.59259033203125,29,1,0,3
1509423972352.0,-0.1584930419921875,5.081298828125,7.8735198974609375,29,1,0,3
1509423972352.0,-0.2159576416015625,5.318328857421875,8.175994873046875,29,1,0,3
1509423972352.0,-0.6668548583984375,5.099655151367188,8.6468505859375,29,1,0,3
1509423972352.0,-0.559112548828125,5.086883544921875,7.91741943359375,29,1,0,3
1509423972352.0,-0.6716461181640625,5.0214385986328125,8.293304443359375,29,1,0,3
1509423972352.0,-0.599029541015625,4.979949951171875,8.362747192382812,29,1,0,3
1509423972352.0,-0.305328369140625,5.066131591796875,8.290924072265625,29,1,0,3
1509423972352.0,-0.03558349609375,5.0302276611328125,8.370712280273438,29,1,0,3
1509425414144.0,2.537384033203125,4.64874267578125,9.614898681640623,30,1,0,3
1509425414144.0,0.9891357421875,3.8586578369140634,9.980422973632812,30,1,0,3
1509425414144.0,2.35302734375,2.5809478759765625,8.314056396484375,30,1,0,3
